{
    "AutoApprovalTime": "2017-11-23T07:40:15Z",
    "AssignmentId": "3U088ZLJVKTS97RXPREDUEHZ6W80WV",
    "WorkerId": "A1Z2X2TVQGJ14Y",
    "answers": {
        "data": [
            {
                "rt": -1,
                "trial_type": "text",
                "internal_node_id": "0.0-0.0",
                "time_elapsed": 1931,
                "key_press": 32,
                "trial_index": 0
            },
            {
                "rt": -1,
                "trial_type": "text",
                "internal_node_id": "0.0-1.0",
                "time_elapsed": 8772,
                "key_press": 32,
                "trial_index": 1
            },
            {
                "rt": -1,
                "trial_type": "single-stim",
                "stimulus": "<div class = imageBox><img class = image src = img/line_images/24_target_01_01.png </img></div>",
                "internal_node_id": "0.0-2.0",
                "time_elapsed": 10984,
                "key_press": -1,
                "trial_index": 2
            },
            {
                "rt": -1,
                "trial_type": "single-stim",
                "stimulus": "<div class = imageBox><img class = image src = img/Pmask2.jpg </img></div>",
                "trial_id": "mask",
                "internal_node_id": "0.0-3.0",
                "time_elapsed": 12392,
                "key_press": -1,
                "trial_index": 3
            },
            {
                "rt": -1,
                "trial_type": "single-stim",
                "stimulus": "<div class = imageBox><img class = image src = img/line_images/24_mis_01_01.png </img></div>",
                "internal_node_id": "0.0-4.0",
                "time_elapsed": 13599,
                "key_press": -1,
                "trial_index": 4
            },
            {
                "rt": -1,
                "trial_type": "single-stim",
                "stimulus": "<div class = centerbox style = text-align:center><p style = font-size:40px>Same or different? </p></div>",
                "internal_node_id": "0.0-5.0",
                "time_elapsed": 15200,
                "key_press": 48,
                "trial_index": 5
            },
            {
                "rt": -1,
                "trial_type": "single-stim",
                "stimulus": "<div class = imageBox><img class = image src = img/line_images/23_target_01_01.png </img></div>",
                "internal_node_id": "0.0-6.0",
                "time_elapsed": 16410,
                "key_press": -1,
                "trial_index": 6
            },
            {
                "rt": -1,
                "trial_type": "single-stim",
                "stimulus": "<div class = imageBox><img class = image src = img/Pmask3.jpg </img></div>",
                "trial_id": "mask",
                "internal_node_id": "0.0-7.0",
                "time_elapsed": 17813,
                "key_press": -1,
                "trial_index": 7
            },
            {
                "rt": -1,
                "trial_type": "single-stim",
                "stimulus": "<div class = imageBox><img class = image src = img/line_images/23_mis_02_02.png </img></div>",
                "internal_node_id": "0.0-8.0",
                "time_elapsed": 19023,
                "key_press": -1,
                "trial_index": 8
            },
            {
                "rt": -1,
                "trial_type": "single-stim",
                "stimulus": "<div class = centerbox style = text-align:center><p style = font-size:40px>Same or different? </p></div>",
                "internal_node_id": "0.0-9.0",
                "time_elapsed": 20509,
                "key_press": 48,
                "trial_index": 9
            },
            {
                "rt": -1,
                "trial_type": "single-stim",
                "stimulus": "<div class = imageBox><img class = image src = img/line_images/22_target_01_01.png </img></div>",
                "internal_node_id": "0.0-10.0",
                "time_elapsed": 21716,
                "key_press": -1,
                "trial_index": 10
            },
            {
                "rt": -1,
                "trial_type": "single-stim",
                "stimulus": "<div class = imageBox><img class = image src = img/Pmask1.jpg </img></div>",
                "trial_id": "mask",
                "internal_node_id": "0.0-11.0",
                "time_elapsed": 23124,
                "key_press": -1,
                "trial_index": 11
            },
            {
                "rt": -1,
                "trial_type": "single-stim",
                "stimulus": "<div class = imageBox><img class = image src = img/line_images/22_mis_02_02.png </img></div>",
                "internal_node_id": "0.0-12.0",
                "time_elapsed": 24333,
                "key_press": -1,
                "trial_index": 12
            },
            {
                "rt": -1,
                "trial_type": "single-stim",
                "stimulus": "<div class = centerbox style = text-align:center><p style = font-size:40px>Same or different? </p></div>",
                "internal_node_id": "0.0-13.0",
                "time_elapsed": 25635,
                "key_press": 48,
                "trial_index": 13
            },
            {
                "rt": -1,
                "trial_type": "single-stim",
                "stimulus": "<div class = imageBox><img class = image src = img/line_images/24_target_01_01.png </img></div>",
                "internal_node_id": "0.0-14.0",
                "time_elapsed": 26841,
                "key_press": -1,
                "trial_index": 14
            },
            {
                "rt": -1,
                "trial_type": "single-stim",
                "stimulus": "<div class = imageBox><img class = image src = img/Pmask5.jpg </img></div>",
                "trial_id": "mask",
                "internal_node_id": "0.0-15.0",
                "time_elapsed": 28247,
                "key_press": -1,
                "trial_index": 15
            },
            {
                "rt": -1,
                "trial_type": "single-stim",
                "stimulus": "<div class = imageBox><img class = image src = img/line_images/24_mis_01_02.png </img></div>",
                "internal_node_id": "0.0-16.0",
                "time_elapsed": 29452,
                "key_press": -1,
                "trial_index": 16
            },
            {
                "rt": -1,
                "trial_type": "single-stim",
                "stimulus": "<div class = centerbox style = text-align:center><p style = font-size:40px>Same or different? </p></div>",
                "internal_node_id": "0.0-17.0",
                "time_elapsed": 30781,
                "key_press": 48,
                "trial_index": 17
            },
            {
                "rt": -1,
                "trial_type": "single-stim",
                "stimulus": "<div class = imageBox><img class = image src = img/line_images/23_target_01_01.png </img></div>",
                "internal_node_id": "0.0-18.0",
                "time_elapsed": 31989,
                "key_press": -1,
                "trial_index": 18
            },
            {
                "rt": -1,
                "trial_type": "single-stim",
                "stimulus": "<div class = imageBox><img class = image src = img/Pmask4.jpg </img></div>",
                "trial_id": "mask",
                "internal_node_id": "0.0-19.0",
                "time_elapsed": 33395,
                "key_press": -1,
                "trial_index": 19
            },
            {
                "rt": -1,
                "trial_type": "single-stim",
                "stimulus": "<div class = imageBox><img class = image src = img/line_images/23_mis_02_01.png </img></div>",
                "internal_node_id": "0.0-20.0",
                "time_elapsed": 34603,
                "key_press": -1,
                "trial_index": 20
            },
            {
                "rt": -1,
                "trial_type": "single-stim",
                "stimulus": "<div class = centerbox style = text-align:center><p style = font-size:40px>Same or different? </p></div>",
                "internal_node_id": "0.0-21.0",
                "time_elapsed": 35883,
                "key_press": 48,
                "trial_index": 21
            },
            {
                "rt": -1,
                "trial_type": "single-stim",
                "stimulus": "<div class = imageBox><img class = image src = img/line_images/22_target_01_01.png </img></div>",
                "internal_node_id": "0.0-22.0",
                "time_elapsed": 37090,
                "key_press": -1,
                "trial_index": 22
            },
            {
                "rt": -1,
                "trial_type": "single-stim",
                "stimulus": "<div class = imageBox><img class = image src = img/Pmask2.jpg </img></div>",
                "trial_id": "mask",
                "internal_node_id": "0.0-23.0",
                "time_elapsed": 38497,
                "key_press": -1,
                "trial_index": 23
            },
            {
                "rt": -1,
                "trial_type": "single-stim",
                "stimulus": "<div class = imageBox><img class = image src = img/line_images/22_mis_02_01.png </img></div>",
                "internal_node_id": "0.0-24.0",
                "time_elapsed": 39705,
                "key_press": -1,
                "trial_index": 24
            },
            {
                "rt": -1,
                "trial_type": "single-stim",
                "stimulus": "<div class = centerbox style = text-align:center><p style = font-size:40px>Same or different? </p></div>",
                "internal_node_id": "0.0-25.0",
                "time_elapsed": 40975,
                "key_press": 48,
                "trial_index": 25
            },
            {
                "rt": -1,
                "trial_type": "single-stim",
                "stimulus": "<div class = imageBox><img class = image src = img/line_images/23_target_01_01.png </img></div>",
                "internal_node_id": "0.0-26.0",
                "time_elapsed": 42181,
                "key_press": -1,
                "trial_index": 26
            },
            {
                "rt": -1,
                "trial_type": "single-stim",
                "stimulus": "<div class = imageBox><img class = image src = img/Pmask4.jpg </img></div>",
                "trial_id": "mask",
                "internal_node_id": "0.0-27.0",
                "time_elapsed": 43591,
                "key_press": -1,
                "trial_index": 27
            },
            {
                "rt": -1,
                "trial_type": "single-stim",
                "stimulus": "<div class = imageBox><img class = image src = img/line_images/23_mis_01_01.png </img></div>",
                "internal_node_id": "0.0-28.0",
                "time_elapsed": 44798,
                "key_press": -1,
                "trial_index": 28
            },
            {
                "rt": -1,
                "trial_type": "single-stim",
                "stimulus": "<div class = centerbox style = text-align:center><p style = font-size:40px>Same or different? </p></div>",
                "internal_node_id": "0.0-29.0",
                "time_elapsed": 46223,
                "key_press": 48,
                "trial_index": 29
            },
            {
                "rt": -1,
                "trial_type": "single-stim",
                "stimulus": "<div class = imageBox><img class = image src = img/line_images/21_target_01_01.png </img></div>",
                "internal_node_id": "0.0-30.0",
                "time_elapsed": 47435,
                "key_press": -1,
                "trial_index": 30
            },
            {
                "rt": -1,
                "trial_type": "single-stim",
                "stimulus": "<div class = imageBox><img class = image src = img/Pmask2.jpg </img></div>",
                "trial_id": "mask",
                "internal_node_id": "0.0-31.0",
                "time_elapsed": 48838,
                "key_press": -1,
                "trial_index": 31
            },
            {
                "rt": -1,
                "trial_type": "single-stim",
                "stimulus": "<div class = imageBox><img class = image src = img/line_images/21_al_01_01.png </img></div>",
                "internal_node_id": "0.0-32.0",
                "time_elapsed": 50048,
                "key_press": -1,
                "trial_index": 32
            },
            {
                "rt": -1,
                "trial_type": "single-stim",
                "stimulus": "<div class = centerbox style = text-align:center><p style = font-size:40px>Same or different? </p></div>",
                "internal_node_id": "0.0-33.0",
                "time_elapsed": 51676,
                "key_press": 48,
                "trial_index": 33
            },
            {
                "rt": -1,
                "trial_type": "text",
                "internal_node_id": "0.0-34.0",
                "time_elapsed": 57016,
                "key_press": 32,
                "trial_index": 34
            },
            {
                "rt": -1,
                "trial_type": "single-stim",
                "stimulus": "<div class = imageBox><img class = image src = img/line_images/20_target_01_01.png </img></div>",
                "trial_id": "target",
                "internal_node_id": "0.0-35.0",
                "time_elapsed": 59224,
                "key_press": -1,
                "trial_index": 35
            },
            {
                "rt": -1,
                "trial_type": "single-stim",
                "stimulus": "<div class = imageBox><img class = image src = img/Pmask1.jpg </img></div>",
                "trial_id": "mask",
                "internal_node_id": "0.0-36.0",
                "time_elapsed": 60632,
                "key_press": -1,
                "trial_index": 36
            },
            {
                "rt": -1,
                "trial_type": "single-stim",
                "stimulus": "<div class = imageBox><img class = image src = img/line_images/20_al_01_02.png </img></div>",
                "trial_id": "probe",
                "internal_node_id": "0.0-37.0",
                "time_elapsed": 61839,
                "key_press": -1,
                "trial_index": 37
            },
            {
                "rt": 404,
                "trial_type": "single-stim",
                "stimulus": "<div class = centerbox style = text-align:center><p style = font-size:40px>Same or different? </p></div>",
                "trial_id": "response_line",
                "internal_node_id": "0.0-38.0",
                "correct": true,
                "time_elapsed": 63247,
                "key_press": 49,
                "alignment": [
                    "aligned"
                ],
                "congruency": [
                    "incongruent"
                ],
                "response": [
                    "same"
                ],
                "trial_index": 38
            },
            {
                "rt": -1,
                "trial_type": "single-stim",
                "stimulus": "<div class = imageBox><img class = image src = img/line_images/3_target_01_01.png </img></div>",
                "trial_id": "target",
                "internal_node_id": "0.0-39.0",
                "time_elapsed": 64456,
                "key_press": -1,
                "trial_index": 39
            },
            {
                "rt": -1,
                "trial_type": "single-stim",
                "stimulus": "<div class = imageBox><img class = image src = img/Pmask2.jpg </img></div>",
                "trial_id": "mask",
                "internal_node_id": "0.0-40.0",
                "time_elapsed": 65861,
                "key_press": -1,
                "trial_index": 40
            },
            {
                "rt": -1,
                "trial_type": "single-stim",
                "stimulus": "<div class = imageBox><img class = image src = img/line_images/3_al_01_01.png </img></div>",
                "trial_id": "probe",
                "internal_node_id": "0.0-41.0",
                "time_elapsed": 67070,
                "key_press": -1,
                "trial_index": 41
            },
            {
                "rt": 357,
                "trial_type": "single-stim",
                "stimulus": "<div class = centerbox style = text-align:center><p style = font-size:40px>Same or different? </p></div>",
                "trial_id": "response_line",
                "internal_node_id": "0.0-42.0",
                "correct": true,
                "time_elapsed": 68432,
                "key_press": 49,
                "alignment": [
                    "aligned"
                ],
                "congruency": [
                    "congruent"
                ],
                "response": [
                    "same"
                ],
                "trial_index": 42
            },
            {
                "rt": -1,
                "trial_type": "single-stim",
                "stimulus": "<div class = imageBox><img class = image src = img/line_images/12_target_01_01.png </img></div>",
                "trial_id": "target",
                "internal_node_id": "0.0-43.0",
                "time_elapsed": 69639,
                "key_press": -1,
                "trial_index": 43
            },
            {
                "rt": -1,
                "trial_type": "single-stim",
                "stimulus": "<div class = imageBox><img class = image src = img/Pmask2.jpg </img></div>",
                "trial_id": "mask",
                "internal_node_id": "0.0-44.0",
                "time_elapsed": 71049,
                "key_press": -1,
                "trial_index": 44
            },
            {
                "rt": -1,
                "trial_type": "single-stim",
                "stimulus": "<div class = imageBox><img class = image src = img/line_images/12_al_01_01.png </img></div>",
                "trial_id": "probe",
                "internal_node_id": "0.0-45.0",
                "time_elapsed": 72259,
                "key_press": -1,
                "trial_index": 45
            },
            {
                "rt": 400,
                "trial_type": "single-stim",
                "stimulus": "<div class = centerbox style = text-align:center><p style = font-size:40px>Same or different? </p></div>",
                "trial_id": "response_line",
                "internal_node_id": "0.0-46.0",
                "correct": true,
                "time_elapsed": 73661,
                "key_press": 49,
                "alignment": [
                    "aligned"
                ],
                "congruency": [
                    "congruent"
                ],
                "response": [
                    "same"
                ],
                "trial_index": 46
            },
            {
                "rt": -1,
                "trial_type": "single-stim",
                "stimulus": "<div class = imageBox><img class = image src = img/line_images/1_target_01_01.png </img></div>",
                "trial_id": "target",
                "internal_node_id": "0.0-47.0",
                "time_elapsed": 74869,
                "key_press": -1,
                "trial_index": 47
            },
            {
                "rt": -1,
                "trial_type": "single-stim",
                "stimulus": "<div class = imageBox><img class = image src = img/Pmask1.jpg </img></div>",
                "trial_id": "mask",
                "internal_node_id": "0.0-48.0",
                "time_elapsed": 76274,
                "key_press": -1,
                "trial_index": 48
            },
            {
                "rt": -1,
                "trial_type": "single-stim",
                "stimulus": "<div class = imageBox><img class = image src = img/line_images/1_mis_02_01.png </img></div>",
                "trial_id": "probe",
                "internal_node_id": "0.0-49.0",
                "time_elapsed": 77486,
                "key_press": -1,
                "trial_index": 49
            },
            {
                "rt": 292,
                "trial_type": "single-stim",
                "stimulus": "<div class = centerbox style = text-align:center><p style = font-size:40px>Same or different? </p></div>",
                "trial_id": "response_line",
                "internal_node_id": "0.0-50.0",
                "correct": true,
                "time_elapsed": 78783,
                "key_press": 48,
                "alignment": [
                    "misaligned"
                ],
                "congruency": [
                    "incongruent"
                ],
                "response": [
                    "different"
                ],
                "trial_index": 50
            },
            {
                "rt": -1,
                "trial_type": "single-stim",
                "stimulus": "<div class = imageBox><img class = image src = img/line_images/6_target_01_01.png </img></div>",
                "trial_id": "target",
                "internal_node_id": "0.0-51.0",
                "time_elapsed": 79988,
                "key_press": -1,
                "trial_index": 51
            },
            {
                "rt": -1,
                "trial_type": "single-stim",
                "stimulus": "<div class = imageBox><img class = image src = img/Pmask3.jpg </img></div>",
                "trial_id": "mask",
                "internal_node_id": "0.0-52.0",
                "time_elapsed": 81392,
                "key_press": -1,
                "trial_index": 52
            },
            {
                "rt": -1,
                "trial_type": "single-stim",
                "stimulus": "<div class = imageBox><img class = image src = img/line_images/6_mis_01_02.png </img></div>",
                "trial_id": "probe",
                "internal_node_id": "0.0-53.0",
                "time_elapsed": 82603,
                "key_press": -1,
                "trial_index": 53
            },
            {
                "rt": 382,
                "trial_type": "single-stim",
                "stimulus": "<div class = centerbox style = text-align:center><p style = font-size:40px>Same or different? </p></div>",
                "trial_id": "response_line",
                "internal_node_id": "0.0-54.0",
                "correct": true,
                "time_elapsed": 83991,
                "key_press": 49,
                "alignment": [
                    "misaligned"
                ],
                "congruency": [
                    "incongruent"
                ],
                "response": [
                    "same"
                ],
                "trial_index": 54
            },
            {
                "rt": -1,
                "trial_type": "single-stim",
                "stimulus": "<div class = imageBox><img class = image src = img/line_images/15_target_01_01.png </img></div>",
                "trial_id": "target",
                "internal_node_id": "0.0-55.0",
                "time_elapsed": 85203,
                "key_press": -1,
                "trial_index": 55
            },
            {
                "rt": -1,
                "trial_type": "single-stim",
                "stimulus": "<div class = imageBox><img class = image src = img/Pmask4.jpg </img></div>",
                "trial_id": "mask",
                "internal_node_id": "0.0-56.0",
                "time_elapsed": 86616,
                "key_press": -1,
                "trial_index": 56
            },
            {
                "rt": -1,
                "trial_type": "single-stim",
                "stimulus": "<div class = imageBox><img class = image src = img/line_images/15_al_02_02.png </img></div>",
                "trial_id": "probe",
                "internal_node_id": "0.0-57.0",
                "time_elapsed": 87823,
                "key_press": -1,
                "trial_index": 57
            },
            {
                "rt": 285,
                "trial_type": "single-stim",
                "stimulus": "<div class = centerbox style = text-align:center><p style = font-size:40px>Same or different? </p></div>",
                "trial_id": "response_line",
                "internal_node_id": "0.0-58.0",
                "correct": true,
                "time_elapsed": 89112,
                "key_press": 48,
                "alignment": [
                    "aligned"
                ],
                "congruency": [
                    "congruent"
                ],
                "response": [
                    "different"
                ],
                "trial_index": 58
            },
            {
                "rt": -1,
                "trial_type": "single-stim",
                "stimulus": "<div class = imageBox><img class = image src = img/line_images/1_target_01_01.png </img></div>",
                "trial_id": "target",
                "internal_node_id": "0.0-59.0",
                "time_elapsed": 90319,
                "key_press": -1,
                "trial_index": 59
            },
            {
                "rt": -1,
                "trial_type": "single-stim",
                "stimulus": "<div class = imageBox><img class = image src = img/Pmask1.jpg </img></div>",
                "trial_id": "mask",
                "internal_node_id": "0.0-60.0",
                "time_elapsed": 91729,
                "key_press": -1,
                "trial_index": 60
            },
            {
                "rt": -1,
                "trial_type": "single-stim",
                "stimulus": "<div class = imageBox><img class = image src = img/line_images/1_al_02_02.png </img></div>",
                "trial_id": "probe",
                "internal_node_id": "0.0-61.0",
                "time_elapsed": 92939,
                "key_press": -1,
                "trial_index": 61
            },
            {
                "rt": 320,
                "trial_type": "single-stim",
                "stimulus": "<div class = centerbox style = text-align:center><p style = font-size:40px>Same or different? </p></div>",
                "trial_id": "response_line",
                "internal_node_id": "0.0-62.0",
                "correct": true,
                "time_elapsed": 94261,
                "key_press": 48,
                "alignment": [
                    "aligned"
                ],
                "congruency": [
                    "congruent"
                ],
                "response": [
                    "different"
                ],
                "trial_index": 62
            },
            {
                "rt": -1,
                "trial_type": "single-stim",
                "stimulus": "<div class = imageBox><img class = image src = img/line_images/8_target_01_01.png </img></div>",
                "trial_id": "target",
                "internal_node_id": "0.0-63.0",
                "time_elapsed": 95467,
                "key_press": -1,
                "trial_index": 63
            },
            {
                "rt": -1,
                "trial_type": "single-stim",
                "stimulus": "<div class = imageBox><img class = image src = img/Pmask2.jpg </img></div>",
                "trial_id": "mask",
                "internal_node_id": "0.0-64.0",
                "time_elapsed": 96878,
                "key_press": -1,
                "trial_index": 64
            },
            {
                "rt": -1,
                "trial_type": "single-stim",
                "stimulus": "<div class = imageBox><img class = image src = img/line_images/8_mis_01_01.png </img></div>",
                "trial_id": "probe",
                "internal_node_id": "0.0-65.0",
                "time_elapsed": 98085,
                "key_press": -1,
                "trial_index": 65
            },
            {
                "rt": 292,
                "trial_type": "single-stim",
                "stimulus": "<div class = centerbox style = text-align:center><p style = font-size:40px>Same or different? </p></div>",
                "trial_id": "response_line",
                "internal_node_id": "0.0-66.0",
                "correct": true,
                "time_elapsed": 99381,
                "key_press": 49,
                "alignment": [
                    "misaligned"
                ],
                "congruency": [
                    "congruent"
                ],
                "response": [
                    "same"
                ],
                "trial_index": 66
            },
            {
                "rt": -1,
                "trial_type": "single-stim",
                "stimulus": "<div class = imageBox><img class = image src = img/line_images/12_target_01_01.png </img></div>",
                "trial_id": "target",
                "internal_node_id": "0.0-67.0",
                "time_elapsed": 100586,
                "key_press": -1,
                "trial_index": 67
            },
            {
                "rt": -1,
                "trial_type": "single-stim",
                "stimulus": "<div class = imageBox><img class = image src = img/Pmask1.jpg </img></div>",
                "trial_id": "mask",
                "internal_node_id": "0.0-68.0",
                "time_elapsed": 101997,
                "key_press": -1,
                "trial_index": 68
            },
            {
                "rt": -1,
                "trial_type": "single-stim",
                "stimulus": "<div class = imageBox><img class = image src = img/line_images/12_mis_01_01.png </img></div>",
                "trial_id": "probe",
                "internal_node_id": "0.0-69.0",
                "time_elapsed": 103204,
                "key_press": -1,
                "trial_index": 69
            },
            {
                "rt": 368,
                "trial_type": "single-stim",
                "stimulus": "<div class = centerbox style = text-align:center><p style = font-size:40px>Same or different? </p></div>",
                "trial_id": "response_line",
                "internal_node_id": "0.0-70.0",
                "correct": true,
                "time_elapsed": 104575,
                "key_press": 49,
                "alignment": [
                    "misaligned"
                ],
                "congruency": [
                    "congruent"
                ],
                "response": [
                    "same"
                ],
                "trial_index": 70
            },
            {
                "rt": -1,
                "trial_type": "single-stim",
                "stimulus": "<div class = imageBox><img class = image src = img/line_images/13_target_01_01.png </img></div>",
                "trial_id": "target",
                "internal_node_id": "0.0-71.0",
                "time_elapsed": 105781,
                "key_press": -1,
                "trial_index": 71
            },
            {
                "rt": -1,
                "trial_type": "single-stim",
                "stimulus": "<div class = imageBox><img class = image src = img/Pmask4.jpg </img></div>",
                "trial_id": "mask",
                "internal_node_id": "0.0-72.0",
                "time_elapsed": 107191,
                "key_press": -1,
                "trial_index": 72
            },
            {
                "rt": -1,
                "trial_type": "single-stim",
                "stimulus": "<div class = imageBox><img class = image src = img/line_images/13_al_01_01.png </img></div>",
                "trial_id": "probe",
                "internal_node_id": "0.0-73.0",
                "time_elapsed": 108399,
                "key_press": -1,
                "trial_index": 73
            },
            {
                "rt": 342,
                "trial_type": "single-stim",
                "stimulus": "<div class = centerbox style = text-align:center><p style = font-size:40px>Same or different? </p></div>",
                "trial_id": "response_line",
                "internal_node_id": "0.0-74.0",
                "correct": true,
                "time_elapsed": 109744,
                "key_press": 49,
                "alignment": [
                    "aligned"
                ],
                "congruency": [
                    "congruent"
                ],
                "response": [
                    "same"
                ],
                "trial_index": 74
            },
            {
                "rt": -1,
                "trial_type": "single-stim",
                "stimulus": "<div class = imageBox><img class = image src = img/line_images/10_target_01_01.png </img></div>",
                "trial_id": "target",
                "internal_node_id": "0.0-75.0",
                "time_elapsed": 110952,
                "key_press": -1,
                "trial_index": 75
            },
            {
                "rt": -1,
                "trial_type": "single-stim",
                "stimulus": "<div class = imageBox><img class = image src = img/Pmask4.jpg </img></div>",
                "trial_id": "mask",
                "internal_node_id": "0.0-76.0",
                "time_elapsed": 112363,
                "key_press": -1,
                "trial_index": 76
            },
            {
                "rt": -1,
                "trial_type": "single-stim",
                "stimulus": "<div class = imageBox><img class = image src = img/line_images/10_al_02_01.png </img></div>",
                "trial_id": "probe",
                "internal_node_id": "0.0-77.0",
                "time_elapsed": 113572,
                "key_press": -1,
                "trial_index": 77
            },
            {
                "rt": 328,
                "trial_type": "single-stim",
                "stimulus": "<div class = centerbox style = text-align:center><p style = font-size:40px>Same or different? </p></div>",
                "trial_id": "response_line",
                "internal_node_id": "0.0-78.0",
                "correct": true,
                "time_elapsed": 114905,
                "key_press": 48,
                "alignment": [
                    "aligned"
                ],
                "congruency": [
                    "incongruent"
                ],
                "response": [
                    "different"
                ],
                "trial_index": 78
            },
            {
                "rt": -1,
                "trial_type": "single-stim",
                "stimulus": "<div class = imageBox><img class = image src = img/line_images/7_target_01_01.png </img></div>",
                "trial_id": "target",
                "internal_node_id": "0.0-79.0",
                "time_elapsed": 116112,
                "key_press": -1,
                "trial_index": 79
            },
            {
                "rt": -1,
                "trial_type": "single-stim",
                "stimulus": "<div class = imageBox><img class = image src = img/Pmask2.jpg </img></div>",
                "trial_id": "mask",
                "internal_node_id": "0.0-80.0",
                "time_elapsed": 117522,
                "key_press": -1,
                "trial_index": 80
            },
            {
                "rt": -1,
                "trial_type": "single-stim",
                "stimulus": "<div class = imageBox><img class = image src = img/line_images/7_al_01_01.png </img></div>",
                "trial_id": "probe",
                "internal_node_id": "0.0-81.0",
                "time_elapsed": 118732,
                "key_press": -1,
                "trial_index": 81
            },
            {
                "rt": 312,
                "trial_type": "single-stim",
                "stimulus": "<div class = centerbox style = text-align:center><p style = font-size:40px>Same or different? </p></div>",
                "trial_id": "response_line",
                "internal_node_id": "0.0-82.0",
                "correct": true,
                "time_elapsed": 120046,
                "key_press": 49,
                "alignment": [
                    "aligned"
                ],
                "congruency": [
                    "congruent"
                ],
                "response": [
                    "same"
                ],
                "trial_index": 82
            },
            {
                "rt": -1,
                "trial_type": "single-stim",
                "stimulus": "<div class = imageBox><img class = image src = img/line_images/14_target_01_01.png </img></div>",
                "trial_id": "target",
                "internal_node_id": "0.0-83.0",
                "time_elapsed": 121255,
                "key_press": -1,
                "trial_index": 83
            },
            {
                "rt": -1,
                "trial_type": "single-stim",
                "stimulus": "<div class = imageBox><img class = image src = img/Pmask5.jpg </img></div>",
                "trial_id": "mask",
                "internal_node_id": "0.0-84.0",
                "time_elapsed": 122664,
                "key_press": -1,
                "trial_index": 84
            },
            {
                "rt": -1,
                "trial_type": "single-stim",
                "stimulus": "<div class = imageBox><img class = image src = img/line_images/14_al_02_01.png </img></div>",
                "trial_id": "probe",
                "internal_node_id": "0.0-85.0",
                "time_elapsed": 123875,
                "key_press": -1,
                "trial_index": 85
            },
            {
                "rt": 329,
                "trial_type": "single-stim",
                "stimulus": "<div class = centerbox style = text-align:center><p style = font-size:40px>Same or different? </p></div>",
                "trial_id": "response_line",
                "internal_node_id": "0.0-86.0",
                "correct": true,
                "time_elapsed": 125206,
                "key_press": 48,
                "alignment": [
                    "aligned"
                ],
                "congruency": [
                    "incongruent"
                ],
                "response": [
                    "different"
                ],
                "trial_index": 86
            },
            {
                "rt": -1,
                "trial_type": "single-stim",
                "stimulus": "<div class = imageBox><img class = image src = img/line_images/11_target_01_01.png </img></div>",
                "trial_id": "target",
                "internal_node_id": "0.0-87.0",
                "time_elapsed": 126413,
                "key_press": -1,
                "trial_index": 87
            },
            {
                "rt": -1,
                "trial_type": "single-stim",
                "stimulus": "<div class = imageBox><img class = image src = img/Pmask3.jpg </img></div>",
                "trial_id": "mask",
                "internal_node_id": "0.0-88.0",
                "time_elapsed": 127819,
                "key_press": -1,
                "trial_index": 88
            },
            {
                "rt": -1,
                "trial_type": "single-stim",
                "stimulus": "<div class = imageBox><img class = image src = img/line_images/11_mis_01_01.png </img></div>",
                "trial_id": "probe",
                "internal_node_id": "0.0-89.0",
                "time_elapsed": 129027,
                "key_press": -1,
                "trial_index": 89
            },
            {
                "rt": 297,
                "trial_type": "single-stim",
                "stimulus": "<div class = centerbox style = text-align:center><p style = font-size:40px>Same or different? </p></div>",
                "trial_id": "response_line",
                "internal_node_id": "0.0-90.0",
                "correct": false,
                "time_elapsed": 130327,
                "key_press": 48,
                "alignment": [
                    "misaligned"
                ],
                "congruency": [
                    "congruent"
                ],
                "response": [
                    "same"
                ],
                "trial_index": 90
            },
            {
                "rt": -1,
                "trial_type": "single-stim",
                "stimulus": "<div class = imageBox><img class = image src = img/line_images/20_target_01_01.png </img></div>",
                "trial_id": "target",
                "internal_node_id": "0.0-91.0",
                "time_elapsed": 131533,
                "key_press": -1,
                "trial_index": 91
            },
            {
                "rt": -1,
                "trial_type": "single-stim",
                "stimulus": "<div class = imageBox><img class = image src = img/Pmask3.jpg </img></div>",
                "trial_id": "mask",
                "internal_node_id": "0.0-92.0",
                "time_elapsed": 132938,
                "key_press": -1,
                "trial_index": 92
            },
            {
                "rt": -1,
                "trial_type": "single-stim",
                "stimulus": "<div class = imageBox><img class = image src = img/line_images/20_al_01_01.png </img></div>",
                "trial_id": "probe",
                "internal_node_id": "0.0-93.0",
                "time_elapsed": 134147,
                "key_press": -1,
                "trial_index": 93
            },
            {
                "rt": 339,
                "trial_type": "single-stim",
                "stimulus": "<div class = centerbox style = text-align:center><p style = font-size:40px>Same or different? </p></div>",
                "trial_id": "response_line",
                "internal_node_id": "0.0-94.0",
                "correct": true,
                "time_elapsed": 135488,
                "key_press": 49,
                "alignment": [
                    "aligned"
                ],
                "congruency": [
                    "congruent"
                ],
                "response": [
                    "same"
                ],
                "trial_index": 94
            },
            {
                "rt": -1,
                "trial_type": "single-stim",
                "stimulus": "<div class = imageBox><img class = image src = img/line_images/4_target_01_01.png </img></div>",
                "trial_id": "target",
                "internal_node_id": "0.0-95.0",
                "time_elapsed": 136699,
                "key_press": -1,
                "trial_index": 95
            },
            {
                "rt": -1,
                "trial_type": "single-stim",
                "stimulus": "<div class = imageBox><img class = image src = img/Pmask1.jpg </img></div>",
                "trial_id": "mask",
                "internal_node_id": "0.0-96.0",
                "time_elapsed": 138103,
                "key_press": -1,
                "trial_index": 96
            },
            {
                "rt": -1,
                "trial_type": "single-stim",
                "stimulus": "<div class = imageBox><img class = image src = img/line_images/4_mis_01_02.png </img></div>",
                "trial_id": "probe",
                "internal_node_id": "0.0-97.0",
                "time_elapsed": 139313,
                "key_press": -1,
                "trial_index": 97
            },
            {
                "rt": 460,
                "trial_type": "single-stim",
                "stimulus": "<div class = centerbox style = text-align:center><p style = font-size:40px>Same or different? </p></div>",
                "trial_id": "response_line",
                "internal_node_id": "0.0-98.0",
                "correct": true,
                "time_elapsed": 140775,
                "key_press": 49,
                "alignment": [
                    "misaligned"
                ],
                "congruency": [
                    "incongruent"
                ],
                "response": [
                    "same"
                ],
                "trial_index": 98
            },
            {
                "rt": -1,
                "trial_type": "single-stim",
                "stimulus": "<div class = imageBox><img class = image src = img/line_images/17_target_01_01.png </img></div>",
                "trial_id": "target",
                "internal_node_id": "0.0-99.0",
                "time_elapsed": 141980,
                "key_press": -1,
                "trial_index": 99
            },
            {
                "rt": -1,
                "trial_type": "single-stim",
                "stimulus": "<div class = imageBox><img class = image src = img/Pmask2.jpg </img></div>",
                "trial_id": "mask",
                "internal_node_id": "0.0-100.0",
                "time_elapsed": 143391,
                "key_press": -1,
                "trial_index": 100
            },
            {
                "rt": -1,
                "trial_type": "single-stim",
                "stimulus": "<div class = imageBox><img class = image src = img/line_images/17_mis_01_01.png </img></div>",
                "trial_id": "probe",
                "internal_node_id": "0.0-101.0",
                "time_elapsed": 144600,
                "key_press": -1,
                "trial_index": 101
            },
            {
                "rt": 245,
                "trial_type": "single-stim",
                "stimulus": "<div class = centerbox style = text-align:center><p style = font-size:40px>Same or different? </p></div>",
                "trial_id": "response_line",
                "internal_node_id": "0.0-102.0",
                "correct": true,
                "time_elapsed": 145847,
                "key_press": 49,
                "alignment": [
                    "misaligned"
                ],
                "congruency": [
                    "congruent"
                ],
                "response": [
                    "same"
                ],
                "trial_index": 102
            },
            {
                "rt": -1,
                "trial_type": "single-stim",
                "stimulus": "<div class = imageBox><img class = image src = img/line_images/13_target_01_01.png </img></div>",
                "trial_id": "target",
                "internal_node_id": "0.0-103.0",
                "time_elapsed": 147053,
                "key_press": -1,
                "trial_index": 103
            },
            {
                "rt": -1,
                "trial_type": "single-stim",
                "stimulus": "<div class = imageBox><img class = image src = img/Pmask3.jpg </img></div>",
                "trial_id": "mask",
                "internal_node_id": "0.0-104.0",
                "time_elapsed": 148463,
                "key_press": -1,
                "trial_index": 104
            },
            {
                "rt": -1,
                "trial_type": "single-stim",
                "stimulus": "<div class = imageBox><img class = image src = img/line_images/13_al_02_02.png </img></div>",
                "trial_id": "probe",
                "internal_node_id": "0.0-105.0",
                "time_elapsed": 149672,
                "key_press": -1,
                "trial_index": 105
            },
            {
                "rt": 286,
                "trial_type": "single-stim",
                "stimulus": "<div class = centerbox style = text-align:center><p style = font-size:40px>Same or different? </p></div>",
                "trial_id": "response_line",
                "internal_node_id": "0.0-106.0",
                "correct": true,
                "time_elapsed": 150961,
                "key_press": 48,
                "alignment": [
                    "aligned"
                ],
                "congruency": [
                    "congruent"
                ],
                "response": [
                    "different"
                ],
                "trial_index": 106
            },
            {
                "rt": -1,
                "trial_type": "single-stim",
                "stimulus": "<div class = imageBox><img class = image src = img/line_images/19_target_01_01.png </img></div>",
                "trial_id": "target",
                "internal_node_id": "0.0-107.0",
                "time_elapsed": 152166,
                "key_press": -1,
                "trial_index": 107
            },
            {
                "rt": -1,
                "trial_type": "single-stim",
                "stimulus": "<div class = imageBox><img class = image src = img/Pmask4.jpg </img></div>",
                "trial_id": "mask",
                "internal_node_id": "0.0-108.0",
                "time_elapsed": 153577,
                "key_press": -1,
                "trial_index": 108
            },
            {
                "rt": -1,
                "trial_type": "single-stim",
                "stimulus": "<div class = imageBox><img class = image src = img/line_images/19_mis_01_02.png </img></div>",
                "trial_id": "probe",
                "internal_node_id": "0.0-109.0",
                "time_elapsed": 154786,
                "key_press": -1,
                "trial_index": 109
            },
            {
                "rt": 299,
                "trial_type": "single-stim",
                "stimulus": "<div class = centerbox style = text-align:center><p style = font-size:40px>Same or different? </p></div>",
                "trial_id": "response_line",
                "internal_node_id": "0.0-110.0",
                "correct": true,
                "time_elapsed": 156087,
                "key_press": 49,
                "alignment": [
                    "misaligned"
                ],
                "congruency": [
                    "incongruent"
                ],
                "response": [
                    "same"
                ],
                "trial_index": 110
            },
            {
                "rt": -1,
                "trial_type": "single-stim",
                "stimulus": "<div class = imageBox><img class = image src = img/line_images/5_target_01_01.png </img></div>",
                "trial_id": "target",
                "internal_node_id": "0.0-111.0",
                "time_elapsed": 157297,
                "key_press": -1,
                "trial_index": 111
            },
            {
                "rt": -1,
                "trial_type": "single-stim",
                "stimulus": "<div class = imageBox><img class = image src = img/Pmask3.jpg </img></div>",
                "trial_id": "mask",
                "internal_node_id": "0.0-112.0",
                "time_elapsed": 158705,
                "key_press": -1,
                "trial_index": 112
            },
            {
                "rt": -1,
                "trial_type": "single-stim",
                "stimulus": "<div class = imageBox><img class = image src = img/line_images/5_mis_02_02.png </img></div>",
                "trial_id": "probe",
                "internal_node_id": "0.0-113.0",
                "time_elapsed": 159917,
                "key_press": -1,
                "trial_index": 113
            },
            {
                "rt": 328,
                "trial_type": "single-stim",
                "stimulus": "<div class = centerbox style = text-align:center><p style = font-size:40px>Same or different? </p></div>",
                "trial_id": "response_line",
                "internal_node_id": "0.0-114.0",
                "correct": true,
                "time_elapsed": 161246,
                "key_press": 48,
                "alignment": [
                    "misaligned"
                ],
                "congruency": [
                    "congruent"
                ],
                "response": [
                    "different"
                ],
                "trial_index": 114
            },
            {
                "rt": -1,
                "trial_type": "single-stim",
                "stimulus": "<div class = imageBox><img class = image src = img/line_images/8_target_01_01.png </img></div>",
                "trial_id": "target",
                "internal_node_id": "0.0-115.0",
                "time_elapsed": 162457,
                "key_press": -1,
                "trial_index": 115
            },
            {
                "rt": -1,
                "trial_type": "single-stim",
                "stimulus": "<div class = imageBox><img class = image src = img/Pmask1.jpg </img></div>",
                "trial_id": "mask",
                "internal_node_id": "0.0-116.0",
                "time_elapsed": 163861,
                "key_press": -1,
                "trial_index": 116
            },
            {
                "rt": -1,
                "trial_type": "single-stim",
                "stimulus": "<div class = imageBox><img class = image src = img/line_images/8_al_01_01.png </img></div>",
                "trial_id": "probe",
                "internal_node_id": "0.0-117.0",
                "time_elapsed": 165069,
                "key_press": -1,
                "trial_index": 117
            },
            {
                "rt": 319,
                "trial_type": "single-stim",
                "stimulus": "<div class = centerbox style = text-align:center><p style = font-size:40px>Same or different? </p></div>",
                "trial_id": "response_line",
                "internal_node_id": "0.0-118.0",
                "correct": true,
                "time_elapsed": 166392,
                "key_press": 49,
                "alignment": [
                    "aligned"
                ],
                "congruency": [
                    "congruent"
                ],
                "response": [
                    "same"
                ],
                "trial_index": 118
            },
            {
                "rt": -1,
                "trial_type": "single-stim",
                "stimulus": "<div class = imageBox><img class = image src = img/line_images/9_target_01_01.png </img></div>",
                "trial_id": "target",
                "internal_node_id": "0.0-119.0",
                "time_elapsed": 167599,
                "key_press": -1,
                "trial_index": 119
            },
            {
                "rt": -1,
                "trial_type": "single-stim",
                "stimulus": "<div class = imageBox><img class = image src = img/Pmask3.jpg </img></div>",
                "trial_id": "mask",
                "internal_node_id": "0.0-120.0",
                "time_elapsed": 169007,
                "key_press": -1,
                "trial_index": 120
            },
            {
                "rt": -1,
                "trial_type": "single-stim",
                "stimulus": "<div class = imageBox><img class = image src = img/line_images/9_al_02_01.png </img></div>",
                "trial_id": "probe",
                "internal_node_id": "0.0-121.0",
                "time_elapsed": 170219,
                "key_press": -1,
                "trial_index": 121
            },
            {
                "rt": 335,
                "trial_type": "single-stim",
                "stimulus": "<div class = centerbox style = text-align:center><p style = font-size:40px>Same or different? </p></div>",
                "trial_id": "response_line",
                "internal_node_id": "0.0-122.0",
                "correct": true,
                "time_elapsed": 171556,
                "key_press": 48,
                "alignment": [
                    "aligned"
                ],
                "congruency": [
                    "incongruent"
                ],
                "response": [
                    "different"
                ],
                "trial_index": 122
            },
            {
                "rt": -1,
                "trial_type": "single-stim",
                "stimulus": "<div class = imageBox><img class = image src = img/line_images/7_target_01_01.png </img></div>",
                "trial_id": "target",
                "internal_node_id": "0.0-123.0",
                "time_elapsed": 172765,
                "key_press": -1,
                "trial_index": 123
            },
            {
                "rt": -1,
                "trial_type": "single-stim",
                "stimulus": "<div class = imageBox><img class = image src = img/Pmask3.jpg </img></div>",
                "trial_id": "mask",
                "internal_node_id": "0.0-124.0",
                "time_elapsed": 174169,
                "key_press": -1,
                "trial_index": 124
            },
            {
                "rt": -1,
                "trial_type": "single-stim",
                "stimulus": "<div class = imageBox><img class = image src = img/line_images/7_mis_02_02.png </img></div>",
                "trial_id": "probe",
                "internal_node_id": "0.0-125.0",
                "time_elapsed": 175380,
                "key_press": -1,
                "trial_index": 125
            },
            {
                "rt": 351,
                "trial_type": "single-stim",
                "stimulus": "<div class = centerbox style = text-align:center><p style = font-size:40px>Same or different? </p></div>",
                "trial_id": "response_line",
                "internal_node_id": "0.0-126.0",
                "correct": true,
                "time_elapsed": 176735,
                "key_press": 48,
                "alignment": [
                    "misaligned"
                ],
                "congruency": [
                    "congruent"
                ],
                "response": [
                    "different"
                ],
                "trial_index": 126
            },
            {
                "rt": -1,
                "trial_type": "single-stim",
                "stimulus": "<div class = imageBox><img class = image src = img/line_images/5_target_01_01.png </img></div>",
                "trial_id": "target",
                "internal_node_id": "0.0-127.0",
                "time_elapsed": 177944,
                "key_press": -1,
                "trial_index": 127
            },
            {
                "rt": -1,
                "trial_type": "single-stim",
                "stimulus": "<div class = imageBox><img class = image src = img/Pmask5.jpg </img></div>",
                "trial_id": "mask",
                "internal_node_id": "0.0-128.0",
                "time_elapsed": 179352,
                "key_press": -1,
                "trial_index": 128
            },
            {
                "rt": -1,
                "trial_type": "single-stim",
                "stimulus": "<div class = imageBox><img class = image src = img/line_images/5_mis_02_01.png </img></div>",
                "trial_id": "probe",
                "internal_node_id": "0.0-129.0",
                "time_elapsed": 180561,
                "key_press": -1,
                "trial_index": 129
            },
            {
                "rt": 399,
                "trial_type": "single-stim",
                "stimulus": "<div class = centerbox style = text-align:center><p style = font-size:40px>Same or different? </p></div>",
                "trial_id": "response_line",
                "internal_node_id": "0.0-130.0",
                "correct": true,
                "time_elapsed": 181963,
                "key_press": 48,
                "alignment": [
                    "misaligned"
                ],
                "congruency": [
                    "incongruent"
                ],
                "response": [
                    "different"
                ],
                "trial_index": 130
            },
            {
                "rt": -1,
                "trial_type": "single-stim",
                "stimulus": "<div class = imageBox><img class = image src = img/line_images/10_target_01_01.png </img></div>",
                "trial_id": "target",
                "internal_node_id": "0.0-131.0",
                "time_elapsed": 183174,
                "key_press": -1,
                "trial_index": 131
            },
            {
                "rt": -1,
                "trial_type": "single-stim",
                "stimulus": "<div class = imageBox><img class = image src = img/Pmask2.jpg </img></div>",
                "trial_id": "mask",
                "internal_node_id": "0.0-132.0",
                "time_elapsed": 184578,
                "key_press": -1,
                "trial_index": 132
            },
            {
                "rt": -1,
                "trial_type": "single-stim",
                "stimulus": "<div class = imageBox><img class = image src = img/line_images/10_mis_02_02.png </img></div>",
                "trial_id": "probe",
                "internal_node_id": "0.0-133.0",
                "time_elapsed": 185783,
                "key_press": -1,
                "trial_index": 133
            },
            {
                "rt": 426,
                "trial_type": "single-stim",
                "stimulus": "<div class = centerbox style = text-align:center><p style = font-size:40px>Same or different? </p></div>",
                "trial_id": "response_line",
                "internal_node_id": "0.0-134.0",
                "correct": true,
                "time_elapsed": 187214,
                "key_press": 48,
                "alignment": [
                    "misaligned"
                ],
                "congruency": [
                    "congruent"
                ],
                "response": [
                    "different"
                ],
                "trial_index": 134
            },
            {
                "rt": -1,
                "trial_type": "single-stim",
                "stimulus": "<div class = imageBox><img class = image src = img/line_images/14_target_01_01.png </img></div>",
                "trial_id": "target",
                "internal_node_id": "0.0-135.0",
                "time_elapsed": 188424,
                "key_press": -1,
                "trial_index": 135
            },
            {
                "rt": -1,
                "trial_type": "single-stim",
                "stimulus": "<div class = imageBox><img class = image src = img/Pmask2.jpg </img></div>",
                "trial_id": "mask",
                "internal_node_id": "0.0-136.0",
                "time_elapsed": 189829,
                "key_press": -1,
                "trial_index": 136
            },
            {
                "rt": -1,
                "trial_type": "single-stim",
                "stimulus": "<div class = imageBox><img class = image src = img/line_images/14_al_02_02.png </img></div>",
                "trial_id": "probe",
                "internal_node_id": "0.0-137.0",
                "time_elapsed": 191037,
                "key_press": -1,
                "trial_index": 137
            },
            {
                "rt": 394,
                "trial_type": "single-stim",
                "stimulus": "<div class = centerbox style = text-align:center><p style = font-size:40px>Same or different? </p></div>",
                "trial_id": "response_line",
                "internal_node_id": "0.0-138.0",
                "correct": true,
                "time_elapsed": 192434,
                "key_press": 48,
                "alignment": [
                    "aligned"
                ],
                "congruency": [
                    "congruent"
                ],
                "response": [
                    "different"
                ],
                "trial_index": 138
            },
            {
                "rt": -1,
                "trial_type": "single-stim",
                "stimulus": "<div class = imageBox><img class = image src = img/line_images/4_target_01_01.png </img></div>",
                "trial_id": "target",
                "internal_node_id": "0.0-139.0",
                "time_elapsed": 193642,
                "key_press": -1,
                "trial_index": 139
            },
            {
                "rt": -1,
                "trial_type": "single-stim",
                "stimulus": "<div class = imageBox><img class = image src = img/Pmask1.jpg </img></div>",
                "trial_id": "mask",
                "internal_node_id": "0.0-140.0",
                "time_elapsed": 195052,
                "key_press": -1,
                "trial_index": 140
            },
            {
                "rt": -1,
                "trial_type": "single-stim",
                "stimulus": "<div class = imageBox><img class = image src = img/line_images/4_mis_02_02.png </img></div>",
                "trial_id": "probe",
                "internal_node_id": "0.0-141.0",
                "time_elapsed": 196261,
                "key_press": -1,
                "trial_index": 141
            },
            {
                "rt": 288,
                "trial_type": "single-stim",
                "stimulus": "<div class = centerbox style = text-align:center><p style = font-size:40px>Same or different? </p></div>",
                "trial_id": "response_line",
                "internal_node_id": "0.0-142.0",
                "correct": true,
                "time_elapsed": 197552,
                "key_press": 48,
                "alignment": [
                    "misaligned"
                ],
                "congruency": [
                    "congruent"
                ],
                "response": [
                    "different"
                ],
                "trial_index": 142
            },
            {
                "rt": -1,
                "trial_type": "single-stim",
                "stimulus": "<div class = imageBox><img class = image src = img/line_images/10_target_01_01.png </img></div>",
                "trial_id": "target",
                "internal_node_id": "0.0-143.0",
                "time_elapsed": 198761,
                "key_press": -1,
                "trial_index": 143
            },
            {
                "rt": -1,
                "trial_type": "single-stim",
                "stimulus": "<div class = imageBox><img class = image src = img/Pmask5.jpg </img></div>",
                "trial_id": "mask",
                "internal_node_id": "0.0-144.0",
                "time_elapsed": 200171,
                "key_press": -1,
                "trial_index": 144
            },
            {
                "rt": -1,
                "trial_type": "single-stim",
                "stimulus": "<div class = imageBox><img class = image src = img/line_images/10_mis_01_01.png </img></div>",
                "trial_id": "probe",
                "internal_node_id": "0.0-145.0",
                "time_elapsed": 201380,
                "key_press": -1,
                "trial_index": 145
            },
            {
                "rt": 346,
                "trial_type": "single-stim",
                "stimulus": "<div class = centerbox style = text-align:center><p style = font-size:40px>Same or different? </p></div>",
                "trial_id": "response_line",
                "internal_node_id": "0.0-146.0",
                "correct": true,
                "time_elapsed": 202728,
                "key_press": 49,
                "alignment": [
                    "misaligned"
                ],
                "congruency": [
                    "congruent"
                ],
                "response": [
                    "same"
                ],
                "trial_index": 146
            },
            {
                "rt": -1,
                "trial_type": "single-stim",
                "stimulus": "<div class = imageBox><img class = image src = img/line_images/6_target_01_01.png </img></div>",
                "trial_id": "target",
                "internal_node_id": "0.0-147.0",
                "time_elapsed": 203941,
                "key_press": -1,
                "trial_index": 147
            },
            {
                "rt": -1,
                "trial_type": "single-stim",
                "stimulus": "<div class = imageBox><img class = image src = img/Pmask3.jpg </img></div>",
                "trial_id": "mask",
                "internal_node_id": "0.0-148.0",
                "time_elapsed": 205348,
                "key_press": -1,
                "trial_index": 148
            },
            {
                "rt": -1,
                "trial_type": "single-stim",
                "stimulus": "<div class = imageBox><img class = image src = img/line_images/6_mis_02_01.png </img></div>",
                "trial_id": "probe",
                "internal_node_id": "0.0-149.0",
                "time_elapsed": 206557,
                "key_press": -1,
                "trial_index": 149
            },
            {
                "rt": 427,
                "trial_type": "single-stim",
                "stimulus": "<div class = centerbox style = text-align:center><p style = font-size:40px>Same or different? </p></div>",
                "trial_id": "response_line",
                "internal_node_id": "0.0-150.0",
                "correct": true,
                "time_elapsed": 207986,
                "key_press": 48,
                "alignment": [
                    "misaligned"
                ],
                "congruency": [
                    "incongruent"
                ],
                "response": [
                    "different"
                ],
                "trial_index": 150
            },
            {
                "rt": -1,
                "trial_type": "single-stim",
                "stimulus": "<div class = imageBox><img class = image src = img/line_images/2_target_01_01.png </img></div>",
                "trial_id": "target",
                "internal_node_id": "0.0-151.0",
                "time_elapsed": 209196,
                "key_press": -1,
                "trial_index": 151
            },
            {
                "rt": -1,
                "trial_type": "single-stim",
                "stimulus": "<div class = imageBox><img class = image src = img/Pmask2.jpg </img></div>",
                "trial_id": "mask",
                "internal_node_id": "0.0-152.0",
                "time_elapsed": 210607,
                "key_press": -1,
                "trial_index": 152
            },
            {
                "rt": -1,
                "trial_type": "single-stim",
                "stimulus": "<div class = imageBox><img class = image src = img/line_images/2_al_02_02.png </img></div>",
                "trial_id": "probe",
                "internal_node_id": "0.0-153.0",
                "time_elapsed": 211815,
                "key_press": -1,
                "trial_index": 153
            },
            {
                "rt": 395,
                "trial_type": "single-stim",
                "stimulus": "<div class = centerbox style = text-align:center><p style = font-size:40px>Same or different? </p></div>",
                "trial_id": "response_line",
                "internal_node_id": "0.0-154.0",
                "correct": true,
                "time_elapsed": 213216,
                "key_press": 48,
                "alignment": [
                    "aligned"
                ],
                "congruency": [
                    "congruent"
                ],
                "response": [
                    "different"
                ],
                "trial_index": 154
            },
            {
                "rt": -1,
                "trial_type": "single-stim",
                "stimulus": "<div class = imageBox><img class = image src = img/line_images/19_target_01_01.png </img></div>",
                "trial_id": "target",
                "internal_node_id": "0.0-155.0",
                "time_elapsed": 214426,
                "key_press": -1,
                "trial_index": 155
            },
            {
                "rt": -1,
                "trial_type": "single-stim",
                "stimulus": "<div class = imageBox><img class = image src = img/Pmask3.jpg </img></div>",
                "trial_id": "mask",
                "internal_node_id": "0.0-156.0",
                "time_elapsed": 215836,
                "key_press": -1,
                "trial_index": 156
            },
            {
                "rt": -1,
                "trial_type": "single-stim",
                "stimulus": "<div class = imageBox><img class = image src = img/line_images/19_mis_01_01.png </img></div>",
                "trial_id": "probe",
                "internal_node_id": "0.0-157.0",
                "time_elapsed": 217046,
                "key_press": -1,
                "trial_index": 157
            },
            {
                "rt": 428,
                "trial_type": "single-stim",
                "stimulus": "<div class = centerbox style = text-align:center><p style = font-size:40px>Same or different? </p></div>",
                "trial_id": "response_line",
                "internal_node_id": "0.0-158.0",
                "correct": true,
                "time_elapsed": 218478,
                "key_press": 49,
                "alignment": [
                    "misaligned"
                ],
                "congruency": [
                    "congruent"
                ],
                "response": [
                    "same"
                ],
                "trial_index": 158
            },
            {
                "rt": -1,
                "trial_type": "single-stim",
                "stimulus": "<div class = imageBox><img class = image src = img/line_images/19_target_01_01.png </img></div>",
                "trial_id": "target",
                "internal_node_id": "0.0-159.0",
                "time_elapsed": 219687,
                "key_press": -1,
                "trial_index": 159
            },
            {
                "rt": -1,
                "trial_type": "single-stim",
                "stimulus": "<div class = imageBox><img class = image src = img/Pmask1.jpg </img></div>",
                "trial_id": "mask",
                "internal_node_id": "0.0-160.0",
                "time_elapsed": 221090,
                "key_press": -1,
                "trial_index": 160
            },
            {
                "rt": -1,
                "trial_type": "single-stim",
                "stimulus": "<div class = imageBox><img class = image src = img/line_images/19_al_01_01.png </img></div>",
                "trial_id": "probe",
                "internal_node_id": "0.0-161.0",
                "time_elapsed": 222298,
                "key_press": -1,
                "trial_index": 161
            },
            {
                "rt": 358,
                "trial_type": "single-stim",
                "stimulus": "<div class = centerbox style = text-align:center><p style = font-size:40px>Same or different? </p></div>",
                "trial_id": "response_line",
                "internal_node_id": "0.0-162.0",
                "correct": true,
                "time_elapsed": 223659,
                "key_press": 49,
                "alignment": [
                    "aligned"
                ],
                "congruency": [
                    "congruent"
                ],
                "response": [
                    "same"
                ],
                "trial_index": 162
            },
            {
                "rt": -1,
                "trial_type": "single-stim",
                "stimulus": "<div class = imageBox><img class = image src = img/line_images/18_target_01_01.png </img></div>",
                "trial_id": "target",
                "internal_node_id": "0.0-163.0",
                "time_elapsed": 224867,
                "key_press": -1,
                "trial_index": 163
            },
            {
                "rt": -1,
                "trial_type": "single-stim",
                "stimulus": "<div class = imageBox><img class = image src = img/Pmask1.jpg </img></div>",
                "trial_id": "mask",
                "internal_node_id": "0.0-164.0",
                "time_elapsed": 226277,
                "key_press": -1,
                "trial_index": 164
            },
            {
                "rt": -1,
                "trial_type": "single-stim",
                "stimulus": "<div class = imageBox><img class = image src = img/line_images/18_al_02_02.png </img></div>",
                "trial_id": "probe",
                "internal_node_id": "0.0-165.0",
                "time_elapsed": 227488,
                "key_press": -1,
                "trial_index": 165
            },
            {
                "rt": 335,
                "trial_type": "single-stim",
                "stimulus": "<div class = centerbox style = text-align:center><p style = font-size:40px>Same or different? </p></div>",
                "trial_id": "response_line",
                "internal_node_id": "0.0-166.0",
                "correct": true,
                "time_elapsed": 228824,
                "key_press": 48,
                "alignment": [
                    "aligned"
                ],
                "congruency": [
                    "congruent"
                ],
                "response": [
                    "different"
                ],
                "trial_index": 166
            },
            {
                "rt": -1,
                "trial_type": "single-stim",
                "stimulus": "<div class = imageBox><img class = image src = img/line_images/11_target_01_01.png </img></div>",
                "trial_id": "target",
                "internal_node_id": "0.0-167.0",
                "time_elapsed": 230033,
                "key_press": -1,
                "trial_index": 167
            },
            {
                "rt": -1,
                "trial_type": "single-stim",
                "stimulus": "<div class = imageBox><img class = image src = img/Pmask3.jpg </img></div>",
                "trial_id": "mask",
                "internal_node_id": "0.0-168.0",
                "time_elapsed": 231438,
                "key_press": -1,
                "trial_index": 168
            },
            {
                "rt": -1,
                "trial_type": "single-stim",
                "stimulus": "<div class = imageBox><img class = image src = img/line_images/11_al_01_02.png </img></div>",
                "trial_id": "probe",
                "internal_node_id": "0.0-169.0",
                "time_elapsed": 232647,
                "key_press": -1,
                "trial_index": 169
            },
            {
                "rt": 299,
                "trial_type": "single-stim",
                "stimulus": "<div class = centerbox style = text-align:center><p style = font-size:40px>Same or different? </p></div>",
                "trial_id": "response_line",
                "internal_node_id": "0.0-170.0",
                "correct": false,
                "time_elapsed": 233948,
                "key_press": 48,
                "alignment": [
                    "aligned"
                ],
                "congruency": [
                    "incongruent"
                ],
                "response": [
                    "same"
                ],
                "trial_index": 170
            },
            {
                "rt": -1,
                "trial_type": "single-stim",
                "stimulus": "<div class = imageBox><img class = image src = img/line_images/7_target_01_01.png </img></div>",
                "trial_id": "target",
                "internal_node_id": "0.0-171.0",
                "time_elapsed": 235158,
                "key_press": -1,
                "trial_index": 171
            },
            {
                "rt": -1,
                "trial_type": "single-stim",
                "stimulus": "<div class = imageBox><img class = image src = img/Pmask2.jpg </img></div>",
                "trial_id": "mask",
                "internal_node_id": "0.0-172.0",
                "time_elapsed": 236568,
                "key_press": -1,
                "trial_index": 172
            },
            {
                "rt": -1,
                "trial_type": "single-stim",
                "stimulus": "<div class = imageBox><img class = image src = img/line_images/7_mis_01_01.png </img></div>",
                "trial_id": "probe",
                "internal_node_id": "0.0-173.0",
                "time_elapsed": 237778,
                "key_press": -1,
                "trial_index": 173
            },
            {
                "rt": 292,
                "trial_type": "single-stim",
                "stimulus": "<div class = centerbox style = text-align:center><p style = font-size:40px>Same or different? </p></div>",
                "trial_id": "response_line",
                "internal_node_id": "0.0-174.0",
                "correct": true,
                "time_elapsed": 239076,
                "key_press": 49,
                "alignment": [
                    "misaligned"
                ],
                "congruency": [
                    "congruent"
                ],
                "response": [
                    "same"
                ],
                "trial_index": 174
            },
            {
                "rt": -1,
                "trial_type": "single-stim",
                "stimulus": "<div class = imageBox><img class = image src = img/line_images/5_target_01_01.png </img></div>",
                "trial_id": "target",
                "internal_node_id": "0.0-175.0",
                "time_elapsed": 240284,
                "key_press": -1,
                "trial_index": 175
            },
            {
                "rt": -1,
                "trial_type": "single-stim",
                "stimulus": "<div class = imageBox><img class = image src = img/Pmask2.jpg </img></div>",
                "trial_id": "mask",
                "internal_node_id": "0.0-176.0",
                "time_elapsed": 241693,
                "key_press": -1,
                "trial_index": 176
            },
            {
                "rt": -1,
                "trial_type": "single-stim",
                "stimulus": "<div class = imageBox><img class = image src = img/line_images/5_mis_01_02.png </img></div>",
                "trial_id": "probe",
                "internal_node_id": "0.0-177.0",
                "time_elapsed": 242903,
                "key_press": -1,
                "trial_index": 177
            },
            {
                "rt": 643,
                "trial_type": "single-stim",
                "stimulus": "<div class = centerbox style = text-align:center><p style = font-size:40px>Same or different? </p></div>",
                "trial_id": "response_line",
                "internal_node_id": "0.0-178.0",
                "correct": true,
                "time_elapsed": 244553,
                "key_press": 49,
                "alignment": [
                    "misaligned"
                ],
                "congruency": [
                    "incongruent"
                ],
                "response": [
                    "same"
                ],
                "trial_index": 178
            },
            {
                "rt": -1,
                "trial_type": "single-stim",
                "stimulus": "<div class = imageBox><img class = image src = img/line_images/13_target_01_01.png </img></div>",
                "trial_id": "target",
                "internal_node_id": "0.0-179.0",
                "time_elapsed": 245764,
                "key_press": -1,
                "trial_index": 179
            },
            {
                "rt": -1,
                "trial_type": "single-stim",
                "stimulus": "<div class = imageBox><img class = image src = img/Pmask1.jpg </img></div>",
                "trial_id": "mask",
                "internal_node_id": "0.0-180.0",
                "time_elapsed": 247172,
                "key_press": -1,
                "trial_index": 180
            },
            {
                "rt": -1,
                "trial_type": "single-stim",
                "stimulus": "<div class = imageBox><img class = image src = img/line_images/13_mis_02_02.png </img></div>",
                "trial_id": "probe",
                "internal_node_id": "0.0-181.0",
                "time_elapsed": 248381,
                "key_press": -1,
                "trial_index": 181
            },
            {
                "rt": 480,
                "trial_type": "single-stim",
                "stimulus": "<div class = centerbox style = text-align:center><p style = font-size:40px>Same or different? </p></div>",
                "trial_id": "response_line",
                "internal_node_id": "0.0-182.0",
                "correct": true,
                "time_elapsed": 249864,
                "key_press": 48,
                "alignment": [
                    "misaligned"
                ],
                "congruency": [
                    "congruent"
                ],
                "response": [
                    "different"
                ],
                "trial_index": 182
            },
            {
                "rt": -1,
                "trial_type": "single-stim",
                "stimulus": "<div class = imageBox><img class = image src = img/line_images/9_target_01_01.png </img></div>",
                "trial_id": "target",
                "internal_node_id": "0.0-183.0",
                "time_elapsed": 251072,
                "key_press": -1,
                "trial_index": 183
            },
            {
                "rt": -1,
                "trial_type": "single-stim",
                "stimulus": "<div class = imageBox><img class = image src = img/Pmask4.jpg </img></div>",
                "trial_id": "mask",
                "internal_node_id": "0.0-184.0",
                "time_elapsed": 252483,
                "key_press": -1,
                "trial_index": 184
            },
            {
                "rt": -1,
                "trial_type": "single-stim",
                "stimulus": "<div class = imageBox><img class = image src = img/line_images/9_mis_02_02.png </img></div>",
                "trial_id": "probe",
                "internal_node_id": "0.0-185.0",
                "time_elapsed": 253693,
                "key_press": -1,
                "trial_index": 185
            },
            {
                "rt": 255,
                "trial_type": "single-stim",
                "stimulus": "<div class = centerbox style = text-align:center><p style = font-size:40px>Same or different? </p></div>",
                "trial_id": "response_line",
                "internal_node_id": "0.0-186.0",
                "correct": true,
                "time_elapsed": 254950,
                "key_press": 48,
                "alignment": [
                    "misaligned"
                ],
                "congruency": [
                    "congruent"
                ],
                "response": [
                    "different"
                ],
                "trial_index": 186
            },
            {
                "rt": -1,
                "trial_type": "single-stim",
                "stimulus": "<div class = imageBox><img class = image src = img/line_images/13_target_01_01.png </img></div>",
                "trial_id": "target",
                "internal_node_id": "0.0-187.0",
                "time_elapsed": 256156,
                "key_press": -1,
                "trial_index": 187
            },
            {
                "rt": -1,
                "trial_type": "single-stim",
                "stimulus": "<div class = imageBox><img class = image src = img/Pmask1.jpg </img></div>",
                "trial_id": "mask",
                "internal_node_id": "0.0-188.0",
                "time_elapsed": 257567,
                "key_press": -1,
                "trial_index": 188
            },
            {
                "rt": -1,
                "trial_type": "single-stim",
                "stimulus": "<div class = imageBox><img class = image src = img/line_images/13_mis_02_01.png </img></div>",
                "trial_id": "probe",
                "internal_node_id": "0.0-189.0",
                "time_elapsed": 258777,
                "key_press": -1,
                "trial_index": 189
            },
            {
                "rt": 376,
                "trial_type": "single-stim",
                "stimulus": "<div class = centerbox style = text-align:center><p style = font-size:40px>Same or different? </p></div>",
                "trial_id": "response_line",
                "internal_node_id": "0.0-190.0",
                "correct": true,
                "time_elapsed": 260157,
                "key_press": 48,
                "alignment": [
                    "misaligned"
                ],
                "congruency": [
                    "incongruent"
                ],
                "response": [
                    "different"
                ],
                "trial_index": 190
            },
            {
                "rt": -1,
                "trial_type": "single-stim",
                "stimulus": "<div class = imageBox><img class = image src = img/line_images/18_target_01_01.png </img></div>",
                "trial_id": "target",
                "internal_node_id": "0.0-191.0",
                "time_elapsed": 261363,
                "key_press": -1,
                "trial_index": 191
            },
            {
                "rt": -1,
                "trial_type": "single-stim",
                "stimulus": "<div class = imageBox><img class = image src = img/Pmask1.jpg </img></div>",
                "trial_id": "mask",
                "internal_node_id": "0.0-192.0",
                "time_elapsed": 262770,
                "key_press": -1,
                "trial_index": 192
            },
            {
                "rt": -1,
                "trial_type": "single-stim",
                "stimulus": "<div class = imageBox><img class = image src = img/line_images/18_mis_01_02.png </img></div>",
                "trial_id": "probe",
                "internal_node_id": "0.0-193.0",
                "time_elapsed": 263976,
                "key_press": -1,
                "trial_index": 193
            },
            {
                "rt": 440,
                "trial_type": "single-stim",
                "stimulus": "<div class = centerbox style = text-align:center><p style = font-size:40px>Same or different? </p></div>",
                "trial_id": "response_line",
                "internal_node_id": "0.0-194.0",
                "correct": true,
                "time_elapsed": 265419,
                "key_press": 49,
                "alignment": [
                    "misaligned"
                ],
                "congruency": [
                    "incongruent"
                ],
                "response": [
                    "same"
                ],
                "trial_index": 194
            },
            {
                "rt": -1,
                "trial_type": "single-stim",
                "stimulus": "<div class = imageBox><img class = image src = img/line_images/18_target_01_01.png </img></div>",
                "trial_id": "target",
                "internal_node_id": "0.0-195.0",
                "time_elapsed": 266629,
                "key_press": -1,
                "trial_index": 195
            },
            {
                "rt": -1,
                "trial_type": "single-stim",
                "stimulus": "<div class = imageBox><img class = image src = img/Pmask5.jpg </img></div>",
                "trial_id": "mask",
                "internal_node_id": "0.0-196.0",
                "time_elapsed": 268037,
                "key_press": -1,
                "trial_index": 196
            },
            {
                "rt": -1,
                "trial_type": "single-stim",
                "stimulus": "<div class = imageBox><img class = image src = img/line_images/18_mis_02_01.png </img></div>",
                "trial_id": "probe",
                "internal_node_id": "0.0-197.0",
                "time_elapsed": 269244,
                "key_press": -1,
                "trial_index": 197
            },
            {
                "rt": 269,
                "trial_type": "single-stim",
                "stimulus": "<div class = centerbox style = text-align:center><p style = font-size:40px>Same or different? </p></div>",
                "trial_id": "response_line",
                "internal_node_id": "0.0-198.0",
                "correct": true,
                "time_elapsed": 270518,
                "key_press": 48,
                "alignment": [
                    "misaligned"
                ],
                "congruency": [
                    "incongruent"
                ],
                "response": [
                    "different"
                ],
                "trial_index": 198
            },
            {
                "rt": -1,
                "trial_type": "single-stim",
                "stimulus": "<div class = imageBox><img class = image src = img/line_images/3_target_01_01.png </img></div>",
                "trial_id": "target",
                "internal_node_id": "0.0-199.0",
                "time_elapsed": 271723,
                "key_press": -1,
                "trial_index": 199
            },
            {
                "rt": -1,
                "trial_type": "single-stim",
                "stimulus": "<div class = imageBox><img class = image src = img/Pmask3.jpg </img></div>",
                "trial_id": "mask",
                "internal_node_id": "0.0-200.0",
                "time_elapsed": 273133,
                "key_press": -1,
                "trial_index": 200
            },
            {
                "rt": -1,
                "trial_type": "single-stim",
                "stimulus": "<div class = imageBox><img class = image src = img/line_images/3_al_02_01.png </img></div>",
                "trial_id": "probe",
                "internal_node_id": "0.0-201.0",
                "time_elapsed": 274341,
                "key_press": -1,
                "trial_index": 201
            },
            {
                "rt": 274,
                "trial_type": "single-stim",
                "stimulus": "<div class = centerbox style = text-align:center><p style = font-size:40px>Same or different? </p></div>",
                "trial_id": "response_line",
                "internal_node_id": "0.0-202.0",
                "correct": true,
                "time_elapsed": 275619,
                "key_press": 48,
                "alignment": [
                    "aligned"
                ],
                "congruency": [
                    "incongruent"
                ],
                "response": [
                    "different"
                ],
                "trial_index": 202
            },
            {
                "rt": -1,
                "trial_type": "single-stim",
                "stimulus": "<div class = imageBox><img class = image src = img/line_images/8_target_01_01.png </img></div>",
                "trial_id": "target",
                "internal_node_id": "0.0-203.0",
                "time_elapsed": 276826,
                "key_press": -1,
                "trial_index": 203
            },
            {
                "rt": -1,
                "trial_type": "single-stim",
                "stimulus": "<div class = imageBox><img class = image src = img/Pmask4.jpg </img></div>",
                "trial_id": "mask",
                "internal_node_id": "0.0-204.0",
                "time_elapsed": 278235,
                "key_press": -1,
                "trial_index": 204
            },
            {
                "rt": -1,
                "trial_type": "single-stim",
                "stimulus": "<div class = imageBox><img class = image src = img/line_images/8_al_02_01.png </img></div>",
                "trial_id": "probe",
                "internal_node_id": "0.0-205.0",
                "time_elapsed": 279445,
                "key_press": -1,
                "trial_index": 205
            },
            {
                "rt": 299,
                "trial_type": "single-stim",
                "stimulus": "<div class = centerbox style = text-align:center><p style = font-size:40px>Same or different? </p></div>",
                "trial_id": "response_line",
                "internal_node_id": "0.0-206.0",
                "correct": true,
                "time_elapsed": 280746,
                "key_press": 48,
                "alignment": [
                    "aligned"
                ],
                "congruency": [
                    "incongruent"
                ],
                "response": [
                    "different"
                ],
                "trial_index": 206
            },
            {
                "rt": -1,
                "trial_type": "single-stim",
                "stimulus": "<div class = imageBox><img class = image src = img/line_images/4_target_01_01.png </img></div>",
                "trial_id": "target",
                "internal_node_id": "0.0-207.0",
                "time_elapsed": 281955,
                "key_press": -1,
                "trial_index": 207
            },
            {
                "rt": -1,
                "trial_type": "single-stim",
                "stimulus": "<div class = imageBox><img class = image src = img/Pmask1.jpg </img></div>",
                "trial_id": "mask",
                "internal_node_id": "0.0-208.0",
                "time_elapsed": 283362,
                "key_press": -1,
                "trial_index": 208
            },
            {
                "rt": -1,
                "trial_type": "single-stim",
                "stimulus": "<div class = imageBox><img class = image src = img/line_images/4_al_02_02.png </img></div>",
                "trial_id": "probe",
                "internal_node_id": "0.0-209.0",
                "time_elapsed": 284569,
                "key_press": -1,
                "trial_index": 209
            },
            {
                "rt": 545,
                "trial_type": "single-stim",
                "stimulus": "<div class = centerbox style = text-align:center><p style = font-size:40px>Same or different? </p></div>",
                "trial_id": "response_line",
                "internal_node_id": "0.0-210.0",
                "correct": true,
                "time_elapsed": 286117,
                "key_press": 48,
                "alignment": [
                    "aligned"
                ],
                "congruency": [
                    "congruent"
                ],
                "response": [
                    "different"
                ],
                "trial_index": 210
            },
            {
                "rt": -1,
                "trial_type": "single-stim",
                "stimulus": "<div class = imageBox><img class = image src = img/line_images/9_target_01_01.png </img></div>",
                "trial_id": "target",
                "internal_node_id": "0.0-211.0",
                "time_elapsed": 287326,
                "key_press": -1,
                "trial_index": 211
            },
            {
                "rt": -1,
                "trial_type": "single-stim",
                "stimulus": "<div class = imageBox><img class = image src = img/Pmask4.jpg </img></div>",
                "trial_id": "mask",
                "internal_node_id": "0.0-212.0",
                "time_elapsed": 288735,
                "key_press": -1,
                "trial_index": 212
            },
            {
                "rt": -1,
                "trial_type": "single-stim",
