{"AutoApprovalTime": "2017-12-06T22:17:27Z", "AssignmentId": "33CKWXB73JKA5I5BBPSF9V8WAXW11J", "WorkerId": "anon1", "answers": {"data": [{"rt": -1, "trial_type": "text", "time_elapsed": 2055, "internal_node_id": "0.0-0.0", "key_press": 13, "trial_index": 0}, {"rt": -1, "trial_type": "text", "time_elapsed": 17655, "internal_node_id": "0.0-1.0", "key_press": 13, "trial_index": 1}, {"rt": -1, "trial_type": "single-stim", "stimulus": "<div class = imageBox><img class = image src = img/line_images/22_target_01_01.png </img></div>", "time_elapsed": 20065, "internal_node_id": "0.0-2.0", "key_press": -1, "trial_index": 2}, {"rt": -1, "trial_type": "single-stim", "stimulus": "<div class = imageBox><img class = image src = img/Pmask5.jpg </img></div>", "trial_id": "mask", "time_elapsed": 21472, "internal_node_id": "0.0-3.0", "key_press": -1, "trial_index": 3}, {"rt": -1, "trial_type": "single-stim", "stimulus": "<div class = imageBox><img class = image src = img/line_images/22_al_02_02.png </img></div>", "time_elapsed": 22880, "internal_node_id": "0.0-4.0", "key_press": -1, "trial_index": 4}, {"rt": -1, "trial_type": "single-stim", "stimulus": "<div class = centerbox style = text-align:center><p style = font-size:50px>Same or different? </p></div>", "internal_node_id": "0.0-5.0", "response": ["different"], "time_elapsed": 26115, "key_press": 48, "correct": true, "trial_index": 5}, {"rt": -1, "trial_type": "single-stim", "stimulus": "<div class = centerbox style = text-align:center><p style = font-size:40px><span class = 'large' style = 'color:green'>Correct!</span> </p></div>", "time_elapsed": 27622, "internal_node_id": "0.0-6.0", "key_press": -1, "trial_index": 6}, {"rt": -1, "trial_type": "single-stim", "stimulus": "<div class = imageBox><img class = image src = img/line_images/23_target_01_01.png </img></div>", "time_elapsed": 29029, "internal_node_id": "0.0-7.0", "key_press": -1, "trial_index": 7}, {"rt": -1, "trial_type": "single-stim", "stimulus": "<div class = imageBox><img class = image src = img/Pmask4.jpg </img></div>", "trial_id": "mask", "time_elapsed": 30434, "internal_node_id": "0.0-8.0", "key_press": -1, "trial_index": 8}, {"rt": -1, "trial_type": "single-stim", "stimulus": "<div class = imageBox><img class = image src = img/line_images/23_mis_02_01.png </img></div>", "time_elapsed": 31840, "internal_node_id": "0.0-9.0", "key_press": -1, "trial_index": 9}, {"rt": -1, "trial_type": "single-stim", "stimulus": "<div class = centerbox style = text-align:center><p style = font-size:50px>Same or different? </p></div>", "internal_node_id": "0.0-10.0", "response": ["different"], "time_elapsed": 34829, "key_press": 48, "correct": true, "trial_index": 10}, {"rt": -1, "trial_type": "single-stim", "stimulus": "<div class = centerbox style = text-align:center><p style = font-size:40px><span class = 'large' style = 'color:green'>Correct!</span> </p></div>", "time_elapsed": 36334, "internal_node_id": "0.0-11.0", "key_press": -1, "trial_index": 11}, {"rt": -1, "trial_type": "single-stim", "stimulus": "<div class = imageBox><img class = image src = img/line_images/22_target_01_01.png </img></div>", "time_elapsed": 37740, "internal_node_id": "0.0-12.0", "key_press": -1, "trial_index": 12}, {"rt": -1, "trial_type": "single-stim", "stimulus": "<div class = imageBox><img class = image src = img/Pmask2.jpg </img></div>", "trial_id": "mask", "time_elapsed": 39150, "internal_node_id": "0.0-13.0", "key_press": -1, "trial_index": 13}, {"rt": -1, "trial_type": "single-stim", "stimulus": "<div class = imageBox><img class = image src = img/line_images/22_mis_01_01.png </img></div>", "time_elapsed": 40555, "internal_node_id": "0.0-14.0", "key_press": -1, "trial_index": 14}, {"rt": -1, "trial_type": "single-stim", "stimulus": "<div class = centerbox style = text-align:center><p style = font-size:50px>Same or different? </p></div>", "internal_node_id": "0.0-15.0", "response": ["same"], "time_elapsed": 41949, "key_press": 48, "correct": false, "trial_index": 15}, {"rt": -1, "trial_type": "single-stim", "stimulus": "<div class = centerbox style = text-align:center><p style = font-size:40px><span class = 'large' style = 'color:red'>Incorrect</span> </p></div>", "time_elapsed": 43456, "internal_node_id": "0.0-16.0", "key_press": -1, "trial_index": 16}, {"rt": -1, "trial_type": "single-stim", "stimulus": "<div class = imageBox><img class = image src = img/line_images/24_target_01_01.png </img></div>", "time_elapsed": 44862, "internal_node_id": "0.0-17.0", "key_press": -1, "trial_index": 17}, {"rt": -1, "trial_type": "single-stim", "stimulus": "<div class = imageBox><img class = image src = img/Pmask3.jpg </img></div>", "trial_id": "mask", "time_elapsed": 46268, "internal_node_id": "0.0-18.0", "key_press": -1, "trial_index": 18}, {"rt": -1, "trial_type": "single-stim", "stimulus": "<div class = imageBox><img class = image src = img/line_images/24_al_02_02.png </img></div>", "time_elapsed": 47673, "internal_node_id": "0.0-19.0", "key_press": -1, "trial_index": 19}, {"rt": -1, "trial_type": "single-stim", "stimulus": "<div class = centerbox style = text-align:center><p style = font-size:50px>Same or different? </p></div>", "internal_node_id": "0.0-20.0", "response": ["different"], "time_elapsed": 49190, "key_press": 48, "correct": true, "trial_index": 20}, {"rt": -1, "trial_type": "single-stim", "stimulus": "<div class = centerbox style = text-align:center><p style = font-size:40px><span class = 'large' style = 'color:green'>Correct!</span> </p></div>", "time_elapsed": 50696, "internal_node_id": "0.0-21.0", "key_press": -1, "trial_index": 21}, {"rt": -1, "trial_type": "single-stim", "stimulus": "<div class = imageBox><img class = image src = img/line_images/22_target_01_01.png </img></div>", "time_elapsed": 52102, "internal_node_id": "0.0-22.0", "key_press": -1, "trial_index": 22}, {"rt": -1, "trial_type": "single-stim", "stimulus": "<div class = imageBox><img class = image src = img/Pmask1.jpg </img></div>", "trial_id": "mask", "time_elapsed": 53507, "internal_node_id": "0.0-23.0", "key_press": -1, "trial_index": 23}, {"rt": -1, "trial_type": "single-stim", "stimulus": "<div class = imageBox><img class = image src = img/line_images/22_al_01_01.png </img></div>", "time_elapsed": 54913, "internal_node_id": "0.0-24.0", "key_press": -1, "trial_index": 24}, {"rt": -1, "trial_type": "single-stim", "stimulus": "<div class = centerbox style = text-align:center><p style = font-size:50px>Same or different? </p></div>", "internal_node_id": "0.0-25.0", "response": ["same"], "time_elapsed": 56494, "key_press": 49, "correct": true, "trial_index": 25}, {"rt": -1, "trial_type": "single-stim", "stimulus": "<div class = centerbox style = text-align:center><p style = font-size:40px><span class = 'large' style = 'color:green'>Correct!</span> </p></div>", "time_elapsed": 57999, "internal_node_id": "0.0-26.0", "key_press": -1, "trial_index": 26}, {"rt": -1, "trial_type": "single-stim", "stimulus": "<div class = imageBox><img class = image src = img/line_images/24_target_01_01.png </img></div>", "time_elapsed": 59405, "internal_node_id": "0.0-27.0", "key_press": -1, "trial_index": 27}, {"rt": -1, "trial_type": "single-stim", "stimulus": "<div class = imageBox><img class = image src = img/Pmask2.jpg </img></div>", "trial_id": "mask", "time_elapsed": 60811, "internal_node_id": "0.0-28.0", "key_press": -1, "trial_index": 28}, {"rt": -1, "trial_type": "single-stim", "stimulus": "<div class = imageBox><img class = image src = img/line_images/24_al_01_02.png </img></div>", "time_elapsed": 62216, "internal_node_id": "0.0-29.0", "key_press": -1, "trial_index": 29}, {"rt": -1, "trial_type": "single-stim", "stimulus": "<div class = centerbox style = text-align:center><p style = font-size:50px>Same or different? </p></div>", "internal_node_id": "0.0-30.0", "response": ["same"], "time_elapsed": 63429, "key_press": 49, "correct": true, "trial_index": 30}, {"rt": -1, "trial_type": "single-stim", "stimulus": "<div class = centerbox style = text-align:center><p style = font-size:40px><span class = 'large' style = 'color:green'>Correct!</span> </p></div>", "time_elapsed": 64935, "internal_node_id": "0.0-31.0", "key_press": -1, "trial_index": 31}, {"rt": -1, "trial_type": "single-stim", "stimulus": "<div class = imageBox><img class = image src = img/line_images/24_target_01_01.png </img></div>", "time_elapsed": 66341, "internal_node_id": "0.0-32.0", "key_press": -1, "trial_index": 32}, {"rt": -1, "trial_type": "single-stim", "stimulus": "<div class = imageBox><img class = image src = img/Pmask1.jpg </img></div>", "trial_id": "mask", "time_elapsed": 67746, "internal_node_id": "0.0-33.0", "key_press": -1, "trial_index": 33}, {"rt": -1, "trial_type": "single-stim", "stimulus": "<div class = imageBox><img class = image src = img/line_images/24_mis_01_02.png </img></div>", "time_elapsed": 69151, "internal_node_id": "0.0-34.0", "key_press": -1, "trial_index": 34}, {"rt": -1, "trial_type": "single-stim", "stimulus": "<div class = centerbox style = text-align:center><p style = font-size:50px>Same or different? </p></div>", "internal_node_id": "0.0-35.0", "response": ["same"], "time_elapsed": 70515, "key_press": 48, "correct": false, "trial_index": 35}, {"rt": -1, "trial_type": "single-stim", "stimulus": "<div class = centerbox style = text-align:center><p style = font-size:40px><span class = 'large' style = 'color:red'>Incorrect</span> </p></div>", "time_elapsed": 72021, "internal_node_id": "0.0-36.0", "key_press": -1, "trial_index": 36}, {"rt": -1, "trial_type": "single-stim", "stimulus": "<div class = imageBox><img class = image src = img/line_images/24_target_01_01.png </img></div>", "time_elapsed": 73426, "internal_node_id": "0.0-37.0", "key_press": -1, "trial_index": 37}, {"rt": -1, "trial_type": "single-stim", "stimulus": "<div class = imageBox><img class = image src = img/Pmask5.jpg </img></div>", "trial_id": "mask", "time_elapsed": 74832, "internal_node_id": "0.0-38.0", "key_press": -1, "trial_index": 38}, {"rt": -1, "trial_type": "single-stim", "stimulus": "<div class = imageBox><img class = image src = img/line_images/24_al_02_01.png </img></div>", "time_elapsed": 76237, "internal_node_id": "0.0-39.0", "key_press": -1, "trial_index": 39}, {"rt": -1, "trial_type": "single-stim", "stimulus": "<div class = centerbox style = text-align:center><p style = font-size:50px>Same or different? </p></div>", "internal_node_id": "0.0-40.0", "response": ["different"], "time_elapsed": 77627, "key_press": 48, "correct": true, "trial_index": 40}, {"rt": -1, "trial_type": "single-stim", "stimulus": "<div class = centerbox style = text-align:center><p style = font-size:40px><span class = 'large' style = 'color:green'>Correct!</span> </p></div>", "time_elapsed": 79133, "internal_node_id": "0.0-41.0", "key_press": -1, "trial_index": 41}, {"rt": -1, "trial_type": "text", "time_elapsed": 85774, "internal_node_id": "0.0-42.0", "key_press": 13, "trial_index": 42}, {"rt": -1, "trial_type": "single-stim", "stimulus": "<div class = imageBox><img class = image src = img/line_images/15_target_01_01.png </img></div>", "trial_id": "target", "time_elapsed": 87980, "internal_node_id": "0.0-43.0", "key_press": -1, "trial_index": 43}, {"rt": -1, "trial_type": "single-stim", "stimulus": "<div class = imageBox><img class = image src = img/Pmask1.jpg </img></div>", "trial_id": "mask", "time_elapsed": 89385, "internal_node_id": "0.0-44.0", "key_press": -1, "trial_index": 44}, {"rt": -1, "trial_type": "single-stim", "stimulus": "<div class = imageBox><img class = image src = img/line_images/15_mis_01_01.png </img></div>", "trial_id": "probe", "time_elapsed": 90590, "internal_node_id": "0.0-45.0", "key_press": -1, "trial_index": 45}, {"rt": 423, "trial_type": "single-stim", "stimulus": "<div class = centerbox style = text-align:center><p style = font-size:50px>Same or different? </p></div>", "trial_id": "response_line", "time_elapsed": 92018, "response": ["same"], "internal_node_id": "0.0-46.0", "key_press": 48, "trial_index": 46, "congruency": ["congruent"], "correct": false, "alignment": ["misaligned"]}, {"rt": -1, "trial_type": "single-stim", "stimulus": "<div class = imageBox><img class = image src = img/line_images/3_target_01_01.png </img></div>", "trial_id": "target", "time_elapsed": 93228, "internal_node_id": "0.0-47.0", "key_press": -1, "trial_index": 47}, {"rt": -1, "trial_type": "single-stim", "stimulus": "<div class = imageBox><img class = image src = img/Pmask4.jpg </img></div>", "trial_id": "mask", "time_elapsed": 94633, "internal_node_id": "0.0-48.0", "key_press": -1, "trial_index": 48}, {"rt": -1, "trial_type": "single-stim", "stimulus": "<div class = imageBox><img class = image src = img/line_images/3_mis_02_02.png </img></div>", "trial_id": "probe", "time_elapsed": 95838, "internal_node_id": "0.0-49.0", "key_press": -1, "trial_index": 49}, {"rt": 530, "trial_type": "single-stim", "stimulus": "<div class = centerbox style = text-align:center><p style = font-size:50px>Same or different? </p></div>", "trial_id": "response_line", "time_elapsed": 97373, "response": ["different"], "internal_node_id": "0.0-50.0", "key_press": 48, "trial_index": 50, "congruency": ["congruent"], "correct": true, "alignment": ["misaligned"]}, {"rt": -1, "trial_type": "single-stim", "stimulus": "<div class = imageBox><img class = image src = img/line_images/19_target_01_01.png </img></div>", "trial_id": "target", "time_elapsed": 98578, "internal_node_id": "0.0-51.0", "key_press": -1, "trial_index": 51}, {"rt": -1, "trial_type": "single-stim", "stimulus": "<div class = imageBox><img class = image src = img/Pmask2.jpg </img></div>", "trial_id": "mask", "time_elapsed": 99984, "internal_node_id": "0.0-52.0", "key_press": -1, "trial_index": 52}, {"rt": -1, "trial_type": "single-stim", "stimulus": "<div class = imageBox><img class = image src = img/line_images/19_mis_01_01.png </img></div>", "trial_id": "probe", "time_elapsed": 101191, "internal_node_id": "0.0-53.0", "key_press": -1, "trial_index": 53}, {"rt": 259, "trial_type": "single-stim", "stimulus": "<div class = centerbox style = text-align:center><p style = font-size:50px>Same or different? </p></div>", "trial_id": "response_line", "time_elapsed": 102454, "response": ["same"], "internal_node_id": "0.0-54.0", "key_press": 48, "trial_index": 54, "congruency": ["congruent"], "correct": false, "alignment": ["misaligned"]}, {"rt": -1, "trial_type": "single-stim", "stimulus": "<div class = imageBox><img class = image src = img/line_images/17_target_01_01.png </img></div>", "trial_id": "target", "time_elapsed": 103660, "internal_node_id": "0.0-55.0", "key_press": -1, "trial_index": 55}, {"rt": -1, "trial_type": "single-stim", "stimulus": "<div class = imageBox><img class = image src = img/Pmask5.jpg </img></div>", "trial_id": "mask", "time_elapsed": 105067, "internal_node_id": "0.0-56.0", "key_press": -1, "trial_index": 56}, {"rt": -1, "trial_type": "single-stim", "stimulus": "<div class = imageBox><img class = image src = img/line_images/17_al_01_01.png </img></div>", "trial_id": "probe", "time_elapsed": 106273, "internal_node_id": "0.0-57.0", "key_press": -1, "trial_index": 57}, {"rt": 312, "trial_type": "single-stim", "stimulus": "<div class = centerbox style = text-align:center><p style = font-size:50px>Same or different? </p></div>", "trial_id": "response_line", "time_elapsed": 107590, "response": ["same"], "internal_node_id": "0.0-58.0", "key_press": 49, "trial_index": 58, "congruency": ["congruent"], "correct": true, "alignment": ["aligned"]}, {"rt": -1, "trial_type": "single-stim", "stimulus": "<div class = imageBox><img class = image src = img/line_images/14_target_01_01.png </img></div>", "trial_id": "target", "time_elapsed": 108796, "internal_node_id": "0.0-59.0", "key_press": -1, "trial_index": 59}, {"rt": -1, "trial_type": "single-stim", "stimulus": "<div class = imageBox><img class = image src = img/Pmask4.jpg </img></div>", "trial_id": "mask", "time_elapsed": 110201, "internal_node_id": "0.0-60.0", "key_press": -1, "trial_index": 60}, {"rt": -1, "trial_type": "single-stim", "stimulus": "<div class = imageBox><img class = image src = img/line_images/14_mis_01_01.png </img></div>", "trial_id": "probe", "time_elapsed": 111408, "internal_node_id": "0.0-61.0", "key_press": -1, "trial_index": 61}, {"rt": 329, "trial_type": "single-stim", "stimulus": "<div class = centerbox style = text-align:center><p style = font-size:50px>Same or different? </p></div>", "trial_id": "response_line", "time_elapsed": 112743, "response": ["same"], "internal_node_id": "0.0-62.0", "key_press": 49, "trial_index": 62, "congruency": ["congruent"], "correct": true, "alignment": ["misaligned"]}, {"rt": -1, "trial_type": "single-stim", "stimulus": "<div class = imageBox><img class = image src = img/line_images/2_target_01_01.png </img></div>", "trial_id": "target", "time_elapsed": 113948, "internal_node_id": "0.0-63.0", "key_press": -1, "trial_index": 63}, {"rt": -1, "trial_type": "single-stim", "stimulus": "<div class = imageBox><img class = image src = img/Pmask4.jpg </img></div>", "trial_id": "mask", "time_elapsed": 115354, "internal_node_id": "0.0-64.0", "key_press": -1, "trial_index": 64}, {"rt": -1, "trial_type": "single-stim", "stimulus": "<div class = imageBox><img class = image src = img/line_images/2_mis_01_01.png </img></div>", "trial_id": "probe", "time_elapsed": 116561, "internal_node_id": "0.0-65.0", "key_press": -1, "trial_index": 65}, {"rt": 103, "trial_type": "single-stim", "stimulus": "<div class = centerbox style = text-align:center><p style = font-size:50px>Same or different? </p></div>", "trial_id": "response_line", "time_elapsed": 117669, "response": ["same"], "internal_node_id": "0.0-66.0", "key_press": 48, "trial_index": 66, "congruency": ["congruent"], "correct": false, "alignment": ["misaligned"]}, {"rt": -1, "trial_type": "single-stim", "stimulus": "<div class = imageBox><img class = image src = img/line_images/6_target_01_01.png </img></div>", "trial_id": "target", "time_elapsed": 118874, "internal_node_id": "0.0-67.0", "key_press": -1, "trial_index": 67}, {"rt": -1, "trial_type": "single-stim", "stimulus": "<div class = imageBox><img class = image src = img/Pmask4.jpg </img></div>", "trial_id": "mask", "time_elapsed": 120279, "internal_node_id": "0.0-68.0", "key_press": -1, "trial_index": 68}, {"rt": -1, "trial_type": "single-stim", "stimulus": "<div class = imageBox><img class = image src = img/line_images/6_mis_01_01.png </img></div>", "trial_id": "probe", "time_elapsed": 121485, "internal_node_id": "0.0-69.0", "key_press": -1, "trial_index": 69}, {"rt": 81, "trial_type": "single-stim", "stimulus": "<div class = centerbox style = text-align:center><p style = font-size:50px>Same or different? </p></div>", "trial_id": "response_line", "time_elapsed": 122573, "response": ["same"], "internal_node_id": "0.0-70.0", "key_press": 49, "trial_index": 70, "congruency": ["congruent"], "correct": true, "alignment": ["misaligned"]}, {"rt": -1, "trial_type": "single-stim", "stimulus": "<div class = imageBox><img class = image src = img/line_images/8_target_01_01.png </img></div>", "trial_id": "target", "time_elapsed": 123778, "internal_node_id": "0.0-71.0", "key_press": -1, "trial_index": 71}, {"rt": -1, "trial_type": "single-stim", "stimulus": "<div class = imageBox><img class = image src = img/Pmask2.jpg </img></div>", "trial_id": "mask", "time_elapsed": 125184, "internal_node_id": "0.0-72.0", "key_press": -1, "trial_index": 72}, {"rt": -1, "trial_type": "single-stim", "stimulus": "<div class = imageBox><img class = image src = img/line_images/8_al_01_01.png </img></div>", "trial_id": "probe", "time_elapsed": 126390, "internal_node_id": "0.0-73.0", "key_press": -1, "trial_index": 73}, {"rt": 289, "trial_type": "single-stim", "stimulus": "<div class = centerbox style = text-align:center><p style = font-size:50px>Same or different? </p></div>", "trial_id": "response_line", "time_elapsed": 127682, "response": ["same"], "internal_node_id": "0.0-74.0", "key_press": 49, "trial_index": 74, "congruency": ["congruent"], "correct": true, "alignment": ["aligned"]}, {"rt": -1, "trial_type": "single-stim", "stimulus": "<div class = imageBox><img class = image src = img/line_images/9_target_01_01.png </img></div>", "trial_id": "target", "time_elapsed": 128889, "internal_node_id": "0.0-75.0", "key_press": -1, "trial_index": 75}, {"rt": -1, "trial_type": "single-stim", "stimulus": "<div class = imageBox><img class = image src = img/Pmask4.jpg </img></div>", "trial_id": "mask", "time_elapsed": 130294, "internal_node_id": "0.0-76.0", "key_press": -1, "trial_index": 76}, {"rt": -1, "trial_type": "single-stim", "stimulus": "<div class = imageBox><img class = image src = img/line_images/9_mis_02_02.png </img></div>", "trial_id": "probe", "time_elapsed": 131499, "internal_node_id": "0.0-77.0", "key_press": -1, "trial_index": 77}, {"rt": 339, "trial_type": "single-stim", "stimulus": "<div class = centerbox style = text-align:center><p style = font-size:50px>Same or different? </p></div>", "trial_id": "response_line", "time_elapsed": 132843, "response": ["different"], "internal_node_id": "0.0-78.0", "key_press": 48, "trial_index": 78, "congruency": ["congruent"], "correct": true, "alignment": ["misaligned"]}, {"rt": -1, "trial_type": "single-stim", "stimulus": "<div class = imageBox><img class = image src = img/line_images/3_target_01_01.png </img></div>", "trial_id": "target", "time_elapsed": 134049, "internal_node_id": "0.0-79.0", "key_press": -1, "trial_index": 79}, {"rt": -1, "trial_type": "single-stim", "stimulus": "<div class = imageBox><img class = image src = img/Pmask1.jpg </img></div>", "trial_id": "mask", "time_elapsed": 135455, "internal_node_id": "0.0-80.0", "key_press": -1, "trial_index": 80}, {"rt": -1, "trial_type": "single-stim", "stimulus": "<div class = imageBox><img class = image src = img/line_images/3_mis_02_01.png </img></div>", "trial_id": "probe", "time_elapsed": 136660, "internal_node_id": "0.0-81.0", "key_press": -1, "trial_index": 81}, {"rt": 172, "trial_type": "single-stim", "stimulus": "<div class = centerbox style = text-align:center><p style = font-size:50px>Same or different? </p></div>", "trial_id": "response_line", "time_elapsed": 137837, "response": ["different"], "internal_node_id": "0.0-82.0", "key_press": 48, "trial_index": 82, "congruency": ["incongruent"], "correct": true, "alignment": ["misaligned"]}, {"rt": -1, "trial_type": "single-stim", "stimulus": "<div class = imageBox><img class = image src = img/line_images/1_target_01_01.png </img></div>", "trial_id": "target", "time_elapsed": 139043, "internal_node_id": "0.0-83.0", "key_press": -1, "trial_index": 83}, {"rt": -1, "trial_type": "single-stim", "stimulus": "<div class = imageBox><img class = image src = img/Pmask4.jpg </img></div>", "trial_id": "mask", "time_elapsed": 140448, "internal_node_id": "0.0-84.0", "key_press": -1, "trial_index": 84}, {"rt": -1, "trial_type": "single-stim", "stimulus": "<div class = imageBox><img class = image src = img/line_images/1_mis_02_01.png </img></div>", "trial_id": "probe", "time_elapsed": 141654, "internal_node_id": "0.0-85.0", "key_press": -1, "trial_index": 85}, {"rt": 358, "trial_type": "single-stim", "stimulus": "<div class = centerbox style = text-align:center><p style = font-size:50px>Same or different? </p></div>", "trial_id": "response_line", "time_elapsed": 143016, "response": ["different"], "internal_node_id": "0.0-86.0", "key_press": 48, "trial_index": 86, "congruency": ["incongruent"], "correct": true, "alignment": ["misaligned"]}, {"rt": -1, "trial_type": "single-stim", "stimulus": "<div class = imageBox><img class = image src = img/line_images/10_target_01_01.png </img></div>", "trial_id": "target", "time_elapsed": 144221, "internal_node_id": "0.0-87.0", "key_press": -1, "trial_index": 87}, {"rt": -1, "trial_type": "single-stim", "stimulus": "<div class = imageBox><img class = image src = img/Pmask5.jpg </img></div>", "trial_id": "mask", "time_elapsed": 145625, "internal_node_id": "0.0-88.0", "key_press": -1, "trial_index": 88}, {"rt": -1, "trial_type": "single-stim", "stimulus": "<div class = imageBox><img class = image src = img/line_images/10_al_02_02.png </img></div>", "trial_id": "probe", "time_elapsed": 146830, "internal_node_id": "0.0-89.0", "key_press": -1, "trial_index": 89}, {"rt": 265, "trial_type": "single-stim", "stimulus": "<div class = centerbox style = text-align:center><p style = font-size:50px>Same or different? </p></div>", "trial_id": "response_line", "time_elapsed": 148100, "response": ["different"], "internal_node_id": "0.0-90.0", "key_press": 48, "trial_index": 90, "congruency": ["congruent"], "correct": true, "alignment": ["aligned"]}, {"rt": -1, "trial_type": "single-stim", "stimulus": "<div class = imageBox><img class = image src = img/line_images/13_target_01_01.png </img></div>", "trial_id": "target", "time_elapsed": 149306, "internal_node_id": "0.0-91.0", "key_press": -1, "trial_index": 91}, {"rt": -1, "trial_type": "single-stim", "stimulus": "<div class = imageBox><img class = image src = img/Pmask5.jpg </img></div>", "trial_id": "mask", "time_elapsed": 150711, "internal_node_id": "0.0-92.0", "key_press": -1, "trial_index": 92}, {"rt": -1, "trial_type": "single-stim", "stimulus": "<div class = imageBox><img class = image src = img/line_images/13_al_02_01.png </img></div>", "trial_id": "probe", "time_elapsed": 151924, "internal_node_id": "0.0-93.0", "key_press": -1, "trial_index": 93}, {"rt": 273, "trial_type": "single-stim", "stimulus": "<div class = centerbox style = text-align:center><p style = font-size:50px>Same or different? </p></div>", "trial_id": "response_line", "time_elapsed": 153203, "response": ["different"], "internal_node_id": "0.0-94.0", "key_press": 48, "trial_index": 94, "congruency": ["incongruent"], "correct": true, "alignment": ["aligned"]}, {"rt": -1, "trial_type": "single-stim", "stimulus": "<div class = imageBox><img class = image src = img/line_images/13_target_01_01.png </img></div>", "trial_id": "target", "time_elapsed": 154409, "internal_node_id": "0.0-95.0", "key_press": -1, "trial_index": 95}, {"rt": -1, "trial_type": "single-stim", "stimulus": "<div class = imageBox><img class = image src = img/Pmask1.jpg </img></div>", "trial_id": "mask", "time_elapsed": 155814, "internal_node_id": "0.0-96.0", "key_press": -1, "trial_index": 96}, {"rt": -1, "trial_type": "single-stim", "stimulus": "<div class = imageBox><img class = image src = img/line_images/13_mis_02_02.png </img></div>", "trial_id": "probe", "time_elapsed": 157020, "internal_node_id": "0.0-97.0", "key_press": -1, "trial_index": 97}, {"rt": 272, "trial_type": "single-stim", "stimulus": "<div class = centerbox style = text-align:center><p style = font-size:50px>Same or different? </p></div>", "trial_id": "response_line", "time_elapsed": 158297, "response": ["different"], "internal_node_id": "0.0-98.0", "key_press": 48, "trial_index": 98, "congruency": ["congruent"], "correct": true, "alignment": ["misaligned"]}, {"rt": -1, "trial_type": "single-stim", "stimulus": "<div class = imageBox><img class = image src = img/line_images/6_target_01_01.png </img></div>", "trial_id": "target", "time_elapsed": 159503, "internal_node_id": "0.0-99.0", "key_press": -1, "trial_index": 99}, {"rt": -1, "trial_type": "single-stim", "stimulus": "<div class = imageBox><img class = image src = img/Pmask4.jpg </img></div>", "trial_id": "mask", "time_elapsed": 160908, "internal_node_id": "0.0-100.0", "key_press": -1, "trial_index": 100}, {"rt": -1, "trial_type": "single-stim", "stimulus": "<div class = imageBox><img class = image src = img/line_images/6_mis_01_02.png </img></div>", "trial_id": "probe", "time_elapsed": 162114, "internal_node_id": "0.0-101.0", "key_press": -1, "trial_index": 101}, {"rt": 116, "trial_type": "single-stim", "stimulus": "<div class = centerbox style = text-align:center><p style = font-size:50px>Same or different? </p></div>", "trial_id": "response_line", "time_elapsed": 163236, "response": ["same"], "internal_node_id": "0.0-102.0", "key_press": 49, "trial_index": 102, "congruency": ["incongruent"], "correct": true, "alignment": ["misaligned"]}, {"rt": -1, "trial_type": "single-stim", "stimulus": "<div class = imageBox><img class = image src = img/line_images/16_target_01_01.png </img></div>", "trial_id": "target", "time_elapsed": 164442, "internal_node_id": "0.0-103.0", "key_press": -1, "trial_index": 103}, {"rt": -1, "trial_type": "single-stim", "stimulus": "<div class = imageBox><img class = image src = img/Pmask2.jpg </img></div>", "trial_id": "mask", "time_elapsed": 165846, "internal_node_id": "0.0-104.0", "key_press": -1, "trial_index": 104}, {"rt": -1, "trial_type": "single-stim", "stimulus": "<div class = imageBox><img class = image src = img/line_images/16_al_02_02.png </img></div>", "trial_id": "probe", "time_elapsed": 167053, "internal_node_id": "0.0-105.0", "key_press": -1, "trial_index": 105}, {"rt": 39, "trial_type": "single-stim", "stimulus": "<div class = centerbox style = text-align:center><p style = font-size:50px>Same or different? </p></div>", "trial_id": "response_line", "time_elapsed": 168097, "response": ["different"], "internal_node_id": "0.0-106.0", "key_press": 48, "trial_index": 106, "congruency": ["congruent"], "correct": true, "alignment": ["aligned"]}, {"rt": -1, "trial_type": "single-stim", "stimulus": "<div class = imageBox><img class = image src = img/line_images/3_target_01_01.png </img></div>", "trial_id": "target", "time_elapsed": 169303, "internal_node_id": "0.0-107.0", "key_press": -1, "trial_index": 107}, {"rt": -1, "trial_type": "single-stim", "stimulus": "<div class = imageBox><img class = image src = img/Pmask2.jpg </img></div>", "trial_id": "mask", "time_elapsed": 170707, "internal_node_id": "0.0-108.0", "key_press": -1, "trial_index": 108}, {"rt": -1, "trial_type": "single-stim", "stimulus": "<div class = imageBox><img class = image src = img/line_images/3_al_02_02.png </img></div>", "trial_id": "probe", "time_elapsed": 171913, "internal_node_id": "0.0-109.0", "key_press": -1, "trial_index": 109}, {"rt": 185, "trial_type": "single-stim", "stimulus": "<div class = centerbox style = text-align:center><p style = font-size:50px>Same or different? </p></div>", "trial_id": "response_line", "time_elapsed": 173102, "response": ["different"], "internal_node_id": "0.0-110.0", "key_press": 48, "trial_index": 110, "congruency": ["congruent"], "correct": true, "alignment": ["aligned"]}, {"rt": -1, "trial_type": "single-stim", "stimulus": "<div class = imageBox><img class = image src = img/line_images/6_target_01_01.png </img></div>", "trial_id": "target", "time_elapsed": 174308, "internal_node_id": "0.0-111.0", "key_press": -1, "trial_index": 111}, {"rt": -1, "trial_type": "single-stim", "stimulus": "<div class = imageBox><img class = image src = img/Pmask5.jpg </img></div>", "trial_id": "mask", "time_elapsed": 175713, "internal_node_id": "0.0-112.0", "key_press": -1, "trial_index": 112}, {"rt": -1, "trial_type": "single-stim", "stimulus": "<div class = imageBox><img class = image src = img/line_images/6_mis_02_02.png </img></div>", "trial_id": "probe", "time_elapsed": 176920, "internal_node_id": "0.0-113.0", "key_press": -1, "trial_index": 113}, {"rt": 251, "trial_type": "single-stim", "stimulus": "<div class = centerbox style = text-align:center><p style = font-size:50px>Same or different? </p></div>", "trial_id": "response_line", "time_elapsed": 178176, "response": ["different"], "internal_node_id": "0.0-114.0", "key_press": 48, "trial_index": 114, "congruency": ["congruent"], "correct": true, "alignment": ["misaligned"]}, {"rt": -1, "trial_type": "single-stim", "stimulus": "<div class = imageBox><img class = image src = img/line_images/2_target_01_01.png </img></div>", "trial_id": "target", "time_elapsed": 179381, "internal_node_id": "0.0-115.0", "key_press": -1, "trial_index": 115}, {"rt": -1, "trial_type": "single-stim", "stimulus": "<div class = imageBox><img class = image src = img/Pmask3.jpg </img></div>", "trial_id": "mask", "time_elapsed": 180789, "internal_node_id": "0.0-116.0", "key_press": -1, "trial_index": 116}, {"rt": -1, "trial_type": "single-stim", "stimulus": "<div class = imageBox><img class = image src = img/line_images/2_mis_01_02.png </img></div>", "trial_id": "probe", "time_elapsed": 181995, "internal_node_id": "0.0-117.0", "key_press": -1, "trial_index": 117}, {"rt": 3, "trial_type": "single-stim", "stimulus": "<div class = centerbox style = text-align:center><p style = font-size:50px>Same or different? </p></div>", "trial_id": "response_line", "time_elapsed": 183003, "response": ["same"], "internal_node_id": "0.0-118.0", "key_press": 49, "trial_index": 118, "congruency": ["incongruent"], "correct": true, "alignment": ["misaligned"]}, {"rt": -1, "trial_type": "single-stim", "stimulus": "<div class = imageBox><img class = image src = img/line_images/4_target_01_01.png </img></div>", "trial_id": "target", "time_elapsed": 184208, "internal_node_id": "0.0-119.0", "key_press": -1, "trial_index": 119}, {"rt": -1, "trial_type": "single-stim", "stimulus": "<div class = imageBox><img class = image src = img/Pmask5.jpg </img></div>", "trial_id": "mask", "time_elapsed": 185613, "internal_node_id": "0.0-120.0", "key_press": -1, "trial_index": 120}, {"rt": -1, "trial_type": "single-stim", "stimulus": "<div class = imageBox><img class = image src = img/line_images/4_mis_02_02.png </img></div>", "trial_id": "probe", "time_elapsed": 186818, "internal_node_id": "0.0-121.0", "key_press": -1, "trial_index": 121}, {"rt": 204, "trial_type": "single-stim", "stimulus": "<div class = centerbox style = text-align:center><p style = font-size:50px>Same or different? </p></div>", "trial_id": "response_line", "time_elapsed": 188030, "response": ["different"], "internal_node_id": "0.0-122.0", "key_press": 48, "trial_index": 122, "congruency": ["congruent"], "correct": true, "alignment": ["misaligned"]}, {"rt": -1, "trial_type": "single-stim", "stimulus": "<div class = imageBox><img class = image src = img/line_images/9_target_01_01.png </img></div>", "trial_id": "target", "time_elapsed": 189236, "internal_node_id": "0.0-123.0", "key_press": -1, "trial_index": 123}, {"rt": -1, "trial_type": "single-stim", "stimulus": "<div class = imageBox><img class = image src = img/Pmask1.jpg </img></div>", "trial_id": "mask", "time_elapsed": 190641, "internal_node_id": "0.0-124.0", "key_press": -1, "trial_index": 124}, {"rt": -1, "trial_type": "single-stim", "stimulus": "<div class = imageBox><img class = image src = img/line_images/9_mis_02_01.png </img></div>", "trial_id": "probe", "time_elapsed": 191846, "internal_node_id": "0.0-125.0", "key_press": -1, "trial_index": 125}, {"rt": 220, "trial_type": "single-stim", "stimulus": "<div class = centerbox style = text-align:center><p style = font-size:50px>Same or different? </p></div>", "trial_id": "response_line", "time_elapsed": 193071, "response": ["different"], "internal_node_id": "0.0-126.0", "key_press": 48, "trial_index": 126, "congruency": ["incongruent"], "correct": true, "alignment": ["misaligned"]}, {"rt": -1, "trial_type": "single-stim", "stimulus": "<div class = imageBox><img class = image src = img/line_images/8_target_01_01.png </img></div>", "trial_id": "target", "time_elapsed": 194276, "internal_node_id": "0.0-127.0", "key_press": -1, "trial_index": 127}, {"rt": -1, "trial_type": "single-stim", "stimulus": "<div class = imageBox><img class = image src = img/Pmask1.jpg </img></div>", "trial_id": "mask", "time_elapsed": 195681, "internal_node_id": "0.0-128.0", "key_press": -1, "trial_index": 128}, {"rt": -1, "trial_type": "single-stim", "stimulus": "<div class = imageBox><img class = image src = img/line_images/8_al_02_01.png </img></div>", "trial_id": "probe", "time_elapsed": 196887, "internal_node_id": "0.0-129.0", "key_press": -1, "trial_index": 129}, {"rt": 347, "trial_type": "single-stim", "stimulus": "<div class = centerbox style = text-align:center><p style = font-size:50px>Same or different? </p></div>", "trial_id": "response_line", "time_elapsed": 198238, "response": ["different"], "internal_node_id": "0.0-130.0", "key_press": 48, "trial_index": 130, "congruency": ["incongruent"], "correct": true, "alignment": ["aligned"]}, {"rt": -1, "trial_type": "single-stim", "stimulus": "<div class = imageBox><img class = image src = img/line_images/8_target_01_01.png </img></div>", "trial_id": "target", "time_elapsed": 199443, "internal_node_id": "0.0-131.0", "key_press": -1, "trial_index": 131}, {"rt": -1, "trial_type": "single-stim", "stimulus": "<div class = imageBox><img class = image src = img/Pmask5.jpg </img></div>", "trial_id": "mask", "time_elapsed": 200848, "internal_node_id": "0.0-132.0", "key_press": -1, "trial_index": 132}, {"rt": -1, "trial_type": "single-stim", "stimulus": "<div class = imageBox><img class = image src = img/line_images/8_mis_02_02.png </img></div>", "trial_id": "probe", "time_elapsed": 202055, "internal_node_id": "0.0-133.0", "key_press": -1, "trial_index": 133}, {"rt": 398, "trial_type": "single-stim", "stimulus": "<div class = centerbox style = text-align:center><p style = font-size:50px>Same or different? </p></div>", "trial_id": "response_line", "time_elapsed": 203459, "response": ["different"], "internal_node_id": "0.0-134.0", "key_press": 48, "trial_index": 134, "congruency": ["congruent"], "correct": true, "alignment": ["misaligned"]}, {"rt": -1, "trial_type": "single-stim", "stimulus": "<div class = imageBox><img class = image src = img/line_images/18_target_01_01.png </img></div>", "trial_id": "target", "time_elapsed": 204664, "internal_node_id": "0.0-135.0", "key_press": -1, "trial_index": 135}, {"rt": -1, "trial_type": "single-stim", "stimulus": "<div class = imageBox><img class = image src = img/Pmask1.jpg </img></div>", "trial_id": "mask", "time_elapsed": 206070, "internal_node_id": "0.0-136.0", "key_press": -1, "trial_index": 136}, {"rt": -1, "trial_type": "single-stim", "stimulus": "<div class = imageBox><img class = image src = img/line_images/18_mis_02_01.png </img></div>", "trial_id": "probe", "time_elapsed": 207276, "internal_node_id": "0.0-137.0", "key_press": -1, "trial_index": 137}, {"rt": 75, "trial_type": "single-stim", "stimulus": "<div class = centerbox style = text-align:center><p style = font-size:50px>Same or different? </p></div>", "trial_id": "response_line", "time_elapsed": 208357, "response": ["different"], "internal_node_id": "0.0-138.0", "key_press": 49, "trial_index": 138, "congruency": ["incongruent"], "correct": false, "alignment": ["misaligned"]}, {"rt": -1, "trial_type": "single-stim", "stimulus": "<div class = imageBox><img class = image src = img/line_images/11_target_01_01.png </img></div>", "trial_id": "target", "time_elapsed": 209563, "internal_node_id": "0.0-139.0", "key_press": -1, "trial_index": 139}, {"rt": -1, "trial_type": "single-stim", "stimulus": "<div class = imageBox><img class = image src = img/Pmask4.jpg </img></div>", "trial_id": "mask", "time_elapsed": 210968, "internal_node_id": "0.0-140.0", "key_press": -1, "trial_index": 140}, {"rt": -1, "trial_type": "single-stim", "stimulus": "<div class = imageBox><img class = image src = img/line_images/11_mis_01_02.png </img></div>", "trial_id": "probe", "time_elapsed": 212175, "internal_node_id": "0.0-141.0", "key_press": -1, "trial_index": 141}, {"rt": 166, "trial_type": "single-stim", "stimulus": "<div class = centerbox style = text-align:center><p style = font-size:50px>Same or different? </p></div>", "trial_id": "response_line", "time_elapsed": 213346, "response": ["same"], "internal_node_id": "0.0-142.0", "key_press": 49, "trial_index": 142, "congruency": ["incongruent"], "correct": true, "alignment": ["misaligned"]}, {"rt": -1, "trial_type": "single-stim", "stimulus": "<div class = imageBox><img class = image src = img/line_images/8_target_01_01.png </img></div>", "trial_id": "target", "time_elapsed": 214553, "internal_node_id": "0.0-143.0", "key_press": -1, "trial_index": 143}, {"rt": -1, "trial_type": "single-stim", "stimulus": "<div class = imageBox><img class = image src = img/Pmask5.jpg </img></div>", "trial_id": "mask", "time_elapsed": 215958, "internal_node_id": "0.0-144.0", "key_press": -1, "trial_index": 144}, {"rt": -1, "trial_type": "single-stim", "stimulus": "<div class = imageBox><img class = image src = img/line_images/8_al_01_02.png </img></div>", "trial_id": "probe", "time_elapsed": 217163, "internal_node_id": "0.0-145.0", "key_press": -1, "trial_index": 145}, {"rt": 285, "trial_type": "single-stim", "stimulus": "<div class = centerbox style = text-align:center><p style = font-size:50px>Same or different? </p></div>", "trial_id": "response_line", "time_elapsed": 218453, "response": ["same"], "internal_node_id": "0.0-146.0", "key_press": 49, "trial_index": 146, "congruency": ["incongruent"], "correct": true, "alignment": ["aligned"]}, {"rt": -1, "trial_type": "single-stim", "stimulus": "<div class = imageBox><img class = image src = img/line_images/3_target_01_01.png </img></div>", "trial_id": "target", "time_elapsed": 219660, "internal_node_id": "0.0-147.0", "key_press": -1, "trial_index": 147}, {"rt": -1, "trial_type": "single-stim", "stimulus": "<div class = imageBox><img class = image src = img/Pmask3.jpg </img></div>", "trial_id": "mask", "time_elapsed": 221065, "internal_node_id": "0.0-148.0", "key_press": -1, "trial_index": 148}, {"rt": -1, "trial_type": "single-stim", "stimulus": "<div class = imageBox><img class = image src = img/line_images/3_al_02_01.png </img></div>", "trial_id": "probe", "time_elapsed": 222272, "internal_node_id": "0.0-149.0", "key_press": -1, "trial_index": 149}, {"rt": 199, "trial_type": "single-stim", "stimulus": "<div class = centerbox style = text-align:center><p style = font-size:50px>Same or different? </p></div>", "trial_id": "response_line", "time_elapsed": 223474, "response": ["different"], "internal_node_id": "0.0-150.0", "key_press": 48, "trial_index": 150, "congruency": ["incongruent"], "correct": true, "alignment": ["aligned"]}, {"rt": -1, "trial_type": "single-stim", "stimulus": "<div class = imageBox><img class = image src = img/line_images/10_target_01_01.png </img></div>", "trial_id": "target", "time_elapsed": 224682, "internal_node_id": "0.0-151.0", "key_press": -1, "trial_index": 151}, {"rt": -1, "trial_type": "single-stim", "stimulus": "<div class = imageBox><img class = image src = img/Pmask4.jpg </img></div>", "trial_id": "mask", "time_elapsed": 226088, "internal_node_id": "0.0-152.0", "key_press": -1, "trial_index": 152}, {"rt": -1, "trial_type": "single-stim", "stimulus": "<div class = imageBox><img class = image src = img/line_images/10_al_02_01.png </img></div>", "trial_id": "probe", "time_elapsed": 227294, "internal_node_id": "0.0-153.0", "key_press": -1, "trial_index": 153}, {"rt": 119, "trial_type": "single-stim", "stimulus": "<div class = centerbox style = text-align:center><p style = font-size:50px>Same or different? </p></div>", "trial_id": "response_line", "time_elapsed": 228418, "response": ["different"], "internal_node_id": "0.0-154.0", "key_press": 48, "trial_index": 154, "congruency": ["incongruent"], "correct": true, "alignment": ["aligned"]}, {"rt": -1, "trial_type": "single-stim", "stimulus": "<div class = imageBox><img class = image src = img/line_images/10_target_01_01.png </img></div>", "trial_id": "target", "time_elapsed": 229622, "internal_node_id": "0.0-155.0", "key_press": -1, "trial_index": 155}, {"rt": -1, "trial_type": "single-stim", "stimulus": "<div class = imageBox><img class = image src = img/Pmask4.jpg </img></div>", "trial_id": "mask", "time_elapsed": 231027, "internal_node_id": "0.0-156.0", "key_press": -1, "trial_index": 156}, {"rt": -1, "trial_type": "single-stim", "stimulus": "<div class = imageBox><img class = image src = img/line_images/10_mis_01_01.png </img></div>", "trial_id": "probe", "time_elapsed": 232234, "internal_node_id": "0.0-157.0", "key_press": -1, "trial_index": 157}, {"rt": 72, "trial_type": "single-stim", "stimulus": "<div class = centerbox style = text-align:center><p style = font-size:50px>Same or different? </p></div>", "trial_id": "response_line", "time_elapsed": 233312, "response": ["same"], "internal_node_id": "0.0-158.0", "key_press": 49, "trial_index": 158, "congruency": ["congruent"], "correct": true, "alignment": ["misaligned"]}, {"rt": -1, "trial_type": "single-stim", "stimulus": "<div class = imageBox><img class = image src = img/line_images/16_target_01_01.png </img></div>", "trial_id": "target", "time_elapsed": 234518, "internal_node_id": "0.0-159.0", "key_press": -1, "trial_index": 159}, {"rt": -1, "trial_type": "single-stim", "stimulus": "<div class = imageBox><img class = image src = img/Pmask3.jpg </img></div>", "trial_id": "mask", "time_elapsed": 235924, "internal_node_id": "0.0-160.0", "key_press": -1, "trial_index": 160}, {"rt": -1, "trial_type": "single-stim", "stimulus": "<div class = imageBox><img class = image src = img/line_images/16_al_01_01.png </img></div>", "trial_id": "probe", "time_elapsed": 237129, "internal_node_id": "0.0-161.0", "key_press": -1, "trial_index": 161}, {"rt": 208, "trial_type": "single-stim", "stimulus": "<div class = centerbox style = text-align:center><p style = font-size:50px>Same or different? </p></div>", "trial_id": "response_line", "time_elapsed": 238343, "response": ["same"], "internal_node_id": "0.0-162.0", "key_press": 49, "trial_index": 162, "congruency": ["congruent"], "correct": true, "alignment": ["aligned"]}, {"rt": -1, "trial_type": "single-stim", "stimulus": "<div class = imageBox><img class = image src = img/line_images/15_target_01_01.png </img></div>", "trial_id": "target", "time_elapsed": 239548, "internal_node_id": "0.0-163.0", "key_press": -1, "trial_index": 163}, {"rt": -1, "trial_type": "single-stim", "stimulus": "<div class = imageBox><img class = image src = img/Pmask5.jpg </img></div>", "trial_id": "mask", "time_elapsed": 240954, "internal_node_id": "0.0-164.0", "key_press": -1, "trial_index": 164}, {"rt": -1, "trial_type": "single-stim", "stimulus": "<div class = imageBox><img class = image src = img/line_images/15_al_02_01.png </img></div>", "trial_id": "probe", "time_elapsed": 242159, "internal_node_id": "0.0-165.0", "key_press": -1, "trial_index": 165}, {"rt": 295, "trial_type": "single-stim", "stimulus": "<div class = centerbox style = text-align:center><p style = font-size:50px>Same or different? </p></div>", "trial_id": "response_line", "time_elapsed": 243459, "response": ["different"], "internal_node_id": "0.0-166.0", "key_press": 48, "trial_index": 166, "congruency": ["incongruent"], "correct": true, "alignment": ["aligned"]}, {"rt": -1, "trial_type": "single-stim", "stimulus": "<div class = imageBox><img class = image src = img/line_images/13_target_01_01.png </img></div>", "trial_id": "target", "time_elapsed": 244663, "internal_node_id": "0.0-167.0", "key_press": -1, "trial_index": 167}, {"rt": -1, "trial_type": "single-stim", "stimulus": "<div class = imageBox><img class = image src = img/Pmask4.jpg </img></div>", "trial_id": "mask", "time_elapsed": 246068, "internal_node_id": "0.0-168.0", "key_press": -1, "trial_index": 168}, {"rt": -1, "trial_type": "single-stim", "stimulus": "<div class = imageBox><img class = image src = img/line_images/13_mis_01_01.png </img></div>", "trial_id": "probe", "time_elapsed": 247273, "internal_node_id": "0.0-169.0", "key_press": -1, "trial_index": 169}, {"rt": 172, "trial_type": "single-stim", "stimulus": "<div class = centerbox style = text-align:center><p style = font-size:50px>Same or different? </p></div>", "trial_id": "response_line", "time_elapsed": 248450, "response": ["same"], "internal_node_id": "0.0-170.0", "key_press": 48, "trial_index": 170, "congruency": ["congruent"], "correct": false, "alignment": ["misaligned"]}, {"rt": -1, "trial_type": "single-stim", "stimulus": "<div class = imageBox><img class = image src = img/line_images/15_target_01_01.png </img></div>", "trial_id": "target", "time_elapsed": 249657, "internal_node_id": "0.0-171.0", "key_press": -1, "trial_index": 171}, {"rt": -1, "trial_type": "single-stim", "stimulus": "<div class = imageBox><img class = image src = img/Pmask4.jpg </img></div>", "trial_id": "mask", "time_elapsed": 251062, "internal_node_id": "0.0-172.0", "key_press": -1, "trial_index": 172}, {"rt": -1, "trial_type": "single-stim", "stimulus": "<div class = imageBox><img class = image src = img/line_images/15_al_01_02.png </img></div>", "trial_id": "probe", "time_elapsed": 252268, "internal_node_id": "0.0-173.0", "key_press": -1, "trial_index": 173}, {"rt": 114, "trial_type": "single-stim", "stimulus": "<div class = centerbox style = text-align:center><p style = font-size:50px>Same or different? </p></div>", "trial_id": "response_line", "time_elapsed": 253385, "response": ["same"], "internal_node_id": "0.0-174.0", "key_press": 49, "trial_index": 174, "congruency": ["incongruent"], "correct": true, "alignment": ["aligned"]}, {"rt": -1, "trial_type": "single-stim", "stimulus": "<div class = imageBox><img class = image src = img/line_images/18_target_01_01.png </img></div>", "trial_id": "target", "time_elapsed": 254591, "internal_node_id": "0.0-175.0", "key_press": -1, "trial_index": 175}, {"rt": -1, "trial_type": "single-stim", "stimulus": "<div class = imageBox><img class = image src = img/Pmask4.jpg </img></div>", "trial_id": "mask", "time_elapsed": 255996, "internal_node_id": "0.0-176.0", "key_press": -1, "trial_index": 176}, {"rt": -1, "trial_type": "single-stim", "stimulus": "<div class = imageBox><img class = image src = img/line_images/18_mis_02_02.png </img></div>", "trial_id": "probe", "time_elapsed": 257202, "internal_node_id": "0.0-177.0", "key_press": -1, "trial_index": 177}, {"rt": 174, "trial_type": "single-stim", "stimulus": "<div class = centerbox style = text-align:center><p style = font-size:50px>Same or different? </p></div>", "trial_id": "response_line", "time_elapsed": 258380, "response": ["different"], "internal_node_id": "0.0-178.0", "key_press": 48, "trial_index": 178, "congruency": ["congruent"], "correct": true, "alignment": ["misaligned"]}, {"rt": -1, "trial_type": "single-stim", "stimulus": "<div class = imageBox><img class = image src = img/line_images/19_target_01_01.png </img></div>", "trial_id": "target", "time_elapsed": 259585, "internal_node_id": "0.0-179.0", "key_press": -1, "trial_index": 179}, {"rt": -1, "trial_type": "single-stim", "stimulus": "<div class = imageBox><img class = image src = img/Pmask5.jpg </img></div>", "trial_id": "mask", "time_elapsed": 260990, "internal_node_id": "0.0-180.0", "key_press": -1, "trial_index": 180}, {"rt": -1, "trial_type": "single-stim", "stimulus": "<div class = imageBox><img class = image src = img/line_images/19_al_01_01.png </img></div>", "trial_id": "probe", "time_elapsed": 262196, "internal_node_id": "0.0-181.0", "key_press": -1, "trial_index": 181}, {"rt": 93, "trial_type": "single-stim", "stimulus": "<div class = centerbox style = text-align:center><p style = font-size:50px>Same or different? </p></div>", "trial_id": "response_line", "time_elapsed": 263294, "response": ["same"], "internal_node_id": "0.0-182.0", "key_press": 49, "trial_index": 182, "congruency": ["congruent"], "correct": true, "alignment": ["aligned"]}, {"rt": -1, "trial_type": "single-stim", "stimulus": "<div class = imageBox><img class = image src = img/line_images/13_target_01_01.png </img></div>", "trial_id": "target", "time_elapsed": 264499, "internal_node_id": "0.0-183.0", "key_press": -1, "trial_index": 183}, {"rt": -1, "trial_type": "single-stim", "stimulus": "<div class = imageBox><img class = image src = img/Pmask1.jpg </img></div>", "trial_id": "mask", "time_elapsed": 265905, "internal_node_id": "0.0-184.0", "key_press": -1, "trial_index": 184}, {"rt": -1, "trial_type": "single-stim", "stimulus": "<div class = imageBox><img class = image src = img/line_images/13_al_01_02.png </img></div>", "trial_id": "probe", "time_elapsed": 267111, "internal_node_id": "0.0-185.0", "key_press": -1, "trial_index": 185}, {"rt": 91, "trial_type": "single-stim", "stimulus": "<div class = centerbox style = text-align:center><p style = font-size:50px>Same or different? </p></div>", "trial_id": "response_line", "time_elapsed": 268207, "response": ["same"], "internal_node_id": "0.0-186.0", "key_press": 49, "trial_index": 186, "congruency": ["incongruent"], "correct": true, "alignment": ["aligned"]}, {"rt": -1, "trial_type": "single-stim", "stimulus": "<div class = imageBox><img class = image src = img/line_images/8_target_01_01.png </img></div>", "trial_id": "target", "time_elapsed": 269413, "internal_node_id": "0.0-187.0", "key_press": -1, "trial_index": 187}, {"rt": -1, "trial_type": "single-stim", "stimulus": "<div class = imageBox><img class = image src = img/Pmask2.jpg </img></div>", "trial_id": "mask", "time_elapsed": 270819, "internal_node_id": "0.0-188.0", "key_press": -1, "trial_index": 188}, {"rt": -1, "trial_type": "single-stim", "stimulus": "<div class = imageBox><img class = image src = img/line_images/8_mis_01_01.png </img></div>", "trial_id": "probe", "time_elapsed": 272024, "internal_node_id": "0.0-189.0", "key_press": -1, "trial_index": 189}, {"rt": 38, "trial_type": "single-stim", "stimulus": "<div class = centerbox style = text-align:center><p style = font-size:50px>Same or different? </p></div>", "trial_id": "response_line", "time_elapsed": 273068, "response": ["same"], "internal_node_id": "0.0-190.0", "key_press": 49, "trial_index": 190, "congruency": ["congruent"], "correct": true, "alignment": ["misaligned"]}, {"rt": -1, "trial_type": "single-stim", "stimulus": "<div class = imageBox><img class = image src = img/line_images/20_target_01_01.png </img></div>", "trial_id": "target", "time_elapsed": 274273, "internal_node_id": "0.0-191.0", "key_press": -1, "trial_index": 191}, {"rt": -1, "trial_type": "single-stim", "stimulus": "<div class = imageBox><img class = image src = img/Pmask2.jpg </img></div>", "trial_id": "mask", "time_elapsed": 275679, "internal_node_id": "0.0-192.0", "key_press": -1, "trial_index": 192}, {"rt": -1, "trial_type": "single-stim", "stimulus": "<div class = imageBox><img class = image src = img/line_images/20_mis_01_02.png </img></div>", "trial_id": "probe", "time_elapsed": 276884, "internal_node_id": "0.0-193.0", "key_press": -1, "trial_index": 193}, {"rt": 7, "trial_type": "single-stim", "stimulus": "<div class = centerbox style = text-align:center><p style = font-size:50px>Same or different? </p></div>", "trial_id": "response_line", "time_elapsed": 277895, "response": ["same"], "internal_node_id": "0.0-194.0", "key_press": 49, "trial_index": 194, "congruency": ["incongruent"], "correct": true, "alignment": ["misaligned"]}, {"rt": -1, "trial_type": "single-stim", "stimulus": "<div class = imageBox><img class = image src = img/line_images/8_target_01_01.png </img></div>", "trial_id": "target", "time_elapsed": 279100, "internal_node_id": "0.0-195.0", "key_press": -1, "trial_index": 195}, {"rt": -1, "trial_type": "single-stim", "stimulus": "<div class = imageBox><img class = image src = img/Pmask3.jpg </img></div>", "trial_id": "mask", "time_elapsed": 280505, "internal_node_id": "0.0-196.0", "key_press": -1, "trial_index": 196}, {"rt": -1, "trial_type": "single-stim", "stimulus": "<div class = imageBox><img class = image src = img/line_images/8_al_02_02.png </img></div>", "trial_id": "probe", "time_elapsed": 281711, "internal_node_id": "0.0-197.0", "key_press": -1, "trial_index": 197}, {"rt": 135, "trial_type": "single-stim", "stimulus": "<div class = centerbox style = text-align:center><p style = font-size:50px>Same or different? </p></div>", "trial_id": "response_line", "time_elapsed": 282851, "response": ["different"], "internal_node_id": "0.0-198.0", "key_press": 48, "trial_index": 198, "congruency": ["congruent"], "correct": true, "alignment": ["aligned"]}, {"rt": -1, "trial_type": "single-stim", "stimulus": "<div class = imageBox><img class = image src = img/line_images/7_target_01_01.png </img></div>", "trial_id": "target", "time_elapsed": 284057, "internal_node_id": "0.0-199.0", "key_press": -1, "trial_index": 199}, {"rt": -1, "trial_type": "single-stim", "stimulus": "<div class = imageBox><img class = image src = img/Pmask2.jpg </img></div>", "trial_id": "mask", "time_elapsed": 285461, "internal_node_id": "0.0-200.0", "key_press": -1, "trial_index": 200}, {"rt": -1, "trial_type": "single-stim", "stimulus": "<div class = imageBox><img class = image src = img/line_images/7_mis_02_01.png </img></div>", "trial_id": "probe", "time_elapsed": 286667, "internal_node_id": "0.0-201.0", "key_press": -1, "trial_index": 201}, {"rt": 441, "trial_type": "single-stim", "stimulus": "<div class = centerbox style = text-align:center><p style = font-size:50px>Same or different? </p></div>", "trial_id": "response_line", "time_elapsed": 288112, "response": ["different"], "internal_node_id": "0.0-202.0", "key_press": 48, "trial_index": 202, "congruency": ["incongruent"], "correct": true, "alignment": ["misaligned"]}, {"rt": -1, "trial_type": "single-stim", "stimulus": "<div class = imageBox><img class = image src = img/line_images/12_target_01_01.png </img></div>", "trial_id": "target", "time_elapsed": 289317, "internal_node_id": "0.0-203.0", "key_press": -1, "trial_index": 203}, {"rt": -1, "trial_type": "single-stim", "stimulus": "<div class = imageBox><img class = image src = img/Pmask3.jpg </img></div>", "trial_id": "mask", "time_elapsed": 290722, "internal_node_id": "0.0-204.0", "key_press": -1, "trial_index": 204}, {"rt": -1, "trial_type": "single-stim", "stimulus": "<div class = imageBox><img class = image src = img/line_images/12_mis_01_01.png </img></div>", "trial_id": "probe", "time_elapsed": 291928, "internal_node_id": "0.0-205.0", "key_press": -1, "trial_index": 205}, {"rt": 192, "trial_type": "single-stim", "stimulus": "<div class = centerbox style = text-align:center><p style = font-size:50px>Same or different? </p></div>", "trial_id": "response_line", "time_elapsed": 293126, "response": ["same"], "internal_node_id": "0.0-206.0", "key_press": 49, "trial_index": 206, "congruency": ["congruent"], "correct": true, "alignment": ["misaligned"]}, {"rt": -1, "trial_type": "single-stim", "stimulus": "<div class = imageBox><img class = image src = img/line_images/1_target_01_01.png </img></div>", "trial_id": "target", "time_elapsed": 294332, "internal_node_id": "0.0-207.0", "key_press": -1, "trial_index": 207}, {"rt": -1, "trial_type": "single-stim", "stimulus": "<div class = imageBox><img class = image src = img/Pmask5.jpg </img></div>", "trial_id": "mask", "time_elapsed": 295737, "internal_node_id": "0.0-208.0", "key_press": -1, "trial_index": 208}, {"rt": -1, "trial_type": "single-stim", "stimulus": "<div class = imageBox><img class = image src = img/line_images/1_al_01_01.png </img></div>", "trial_id": "probe", "time_elapsed": 296942, "internal_node_id": "0.0-209.0", "key_press": -1, "trial_index": 209}, {"rt": 266, "trial_type": "single-stim", "stimulus": "<div class = centerbox style = text-align:center><p style = font-size:50px>Same or different? </p></div>", "trial_id": "response_line", "time_elapsed": 298213, "response": ["same"], "internal_node_id": "0.0-210.0", "key_press": 49, "trial_index": 210, "congruency": ["congruent"], "correct": true, "alignment": ["aligned"]}, {"rt": -1, "trial_type": "single-stim", "stimulus": "<div class = imageBox><img class = image src = img/line_images/19_target_01_01.png </img></div>", "trial_id": "target", "time_elapsed": 299418, "internal_node_id": "0.0-211.0", "key_press": -1, "trial_index": 211}, {"rt": -1, "trial_type": "single-stim", "stimulus": "<div class = imageBox><img class = image src = img/Pmask4.jpg </img></div>", "trial_id": "mask", "time_elapsed": 300828, "internal_node_id": "0.0-212.0", "key_press": -1, "trial_index": 212}, {"rt": -1, "trial_type": "single-stim", "stimulus": "<div class = imageBox><img class = image src = img/line_images/19_mis_02_01.png </img></div>", "trial_id": "probe", "time_elapsed": 302033, "internal_node_id": "0.0-213.0", "key_press": -1, "trial_index": 213}, {"rt": 322, "trial_type": "single-stim", "stimulus": "<div class = centerbox style = text-align:center><p style = font-size:50px>Same or different? </p></div>", "trial_id": "response_line", "time_elapsed": 303359, "response": ["different"], "internal_node_id": "0.0-214.0", "key_press": 49, "trial_index": 214, "congruency": ["incongruent"], "correct": false, "alignment": ["misaligned"]}, {"rt": -1, "trial_type": "single-stim", "stimulus": "<div class = imageBox><img class = image src = img/line_images/12_target_01_01.png </img></div>", "trial_id": "target", "time_elapsed": 304566, "internal_node_id": "0.0-215.0", "key_press": -1, "trial_index": 215}, {"rt": -1, "trial_type": "single-stim", "stimulus": "<div class = imageBox><img class = image src = img/Pmask4.jpg </img></div>", "trial_id": "mask", "time_elapsed": 305971, "internal_node_id": "0.0-216.0", "key_press": -1, "trial_index": 216}, {"rt": -1, "trial_type": "single-stim", "stimulus": "<div class = imageBox><img class = image src = img/line_images/12_al_01_01.png </img></div>", "trial_id": "probe", "time_elapsed": 307180, "internal_node_id": "0.0-217.0", "key_press": -1, "trial_index": 217}, {"rt": 49, "trial_type": "single-stim", "stimulus": "<div class = centerbox style = text-align:center><p style = font-size:50px>Same or different? </p></div>", "trial_id": "response_line", "time_elapsed": 308234, "response": ["same"], "internal_node_id": "0.0-218.0", "key_press": 49, "trial_index": 218, "congruency": ["congruent"], "correct": true, "alignment": ["aligned"]}, {"rt": -1, "trial_type": "single-stim", "stimulus": "<div class = imageBox><img class = image src = img/line_images/4_target_01_01.png </img></div>", "trial_id": "target", "time_elapsed": 309440, "internal_node_id": "0.0-219.0", "key_press": -1, "trial_index": 219}, {"rt": -1, "trial_type": "single-stim", "stimulus": "<div class = imageBox><img class = image src = img/Pmask3.jpg </img></div>", "trial_id": "mask", "time_elapsed": 310847, "internal_node_id": "0.0-220.0", "key_press": -1, "trial_index": 220}, {"rt": -1, "trial_type": "single-stim", "stimulus": "<div class = imageBox><img class = image src = img/line_images/4_al_02_01.png </img></div>", "trial_id": "probe", "time_elapsed": 312053, "internal_node_id": "0.0-221.0", "key_press": -1, "trial_index": 221}, {"rt": 188, "trial_type": "single-stim", "stimulus": "<div class = centerbox style = text-align:center><p style = font-size:50px>Same or different? </p></div>", "trial_id": "response_line", "time_elapsed": 313244, "response": ["different"], "internal_node_id": "0.0-222.0", "key_press": 48, "trial_index": 222, "congruency": ["incongruent"], "correct": true, "alignment": ["aligned"]}, {"rt": -1, "trial_type": "single-stim", "stimulus": "<div class = imageBox><img class = image src = img/line_images/14_target_01_01.png </img></div>", "trial_id": "target", "time_elapsed": 314450, "internal_node_id": "0.0-223.0", "key_press": -1, "trial_index": 223}, {"rt": -1, "trial_type": "single-stim", "stimulus": "<div class = imageBox><img class = image src = img/Pmask3.jpg </img></div>", "trial_id": "mask", "time_elapsed": 315855, "internal_node_id": "0.0-224.0", "key_press": -1, "trial_index": 224}, {"rt": -1, "trial_type": "single-stim", "stimulus": "<div class = imageBox><img class = image src = img/line_images/14_al_02_02.png </img></div>", "trial_id": "probe", "time_elapsed": 317060, "internal_node_id": "0.0-225.0", "key_press": -1, "trial_index": 225}, {"rt": 260, "trial_type": "single-stim", "stimulus": "<div class = centerbox style = text-align:center><p style = font-size:50px>Same or different? </p></div>", "trial_id": "response_line", "time_elapsed": 318325, "response": ["different"], "internal_node_id": "0.0-226.0", "key_press": 48, "trial_index": 226, "congruency": ["congruent"], "correct": true, "alignment": ["aligned"]}, {"rt": -1, "trial_type": "single-stim", "stimulus": "<div class = imageBox><img class = image src = img/line_images/18_target_01_01.png </img></div>", "trial_id": "target", "time_elapsed": 319530, "internal_node_id": "0.0-227.0", "key_press": -1, "trial_index": 227}, {"rt": -1, "trial_type": "single-stim", "stimulus": "<div class = imageBox><img class = image src = img/Pmask1.jpg </img></div>", "trial_id": "mask", "time_elapsed": 320936, "internal_node_id": "0.0-228.0", "key_press": -1, "trial_index": 228}, {"rt": -1, "trial_type": "single-stim", "stimulus": "<div class = imageBox><img class = image src = img/line_images/18_al_01_01.png </img></div>", "trial_id": "probe", "time_elapsed": 322142, "internal_node_id": "0.0-229.0", "key_press": -1, "trial_index": 229}, {"rt": 74, "trial_type": "single-stim", "stimulus": "<div class = centerbox style = text-align:center><p style = font-size:50px>Same or different? </p></div>", "trial_id": "response_line", "time_elapsed": 323222, "response": ["same"], "internal_node_id": "0.0-230.0", "key_press": 49, "trial_index": 230, "congruency": ["congruent"], "correct": true, "alignment": ["aligned"]}, {"rt": -1, "trial_type": "single-stim", "stimulus": "<div class = imageBox><img class = image src = img/line_images/10_target_01_01.png </img></div>", "trial_id": "target", "time_elapsed": 324427, "internal_node_id": "0.0-231.0", "key_press": -1, "trial_index": 231}, {"rt": -1, "trial_type": "single-stim", "stimulus": "<div class = imageBox><img class = image src = img/Pmask2.jpg </img></div>", "trial_id": "mask", "time_elapsed": 325833, "internal_node_id": "0.0-232.0", "key_press": -1, "trial_index": 232}, {"rt": -1, "trial_type": "single-stim", "stimulus": "<div class = imageBox><img class = image src = img/line_images/10_al_01_02.png </img></div>", "trial_id": "probe", "time_elapsed": 327038, "internal_node_id": "0.0-233.0", "key_press": -1, "trial_index": 233}, {"rt": 31, "trial_type": "single-stim", "stimulus": "<div class = centerbox style = text-align:center><p style = font-size:50px>Same or different? </p></div>", "trial_id": "response_line", "time_elapsed": 328074, "response": ["same"], "internal_node_id": "0.0-234.0", "key_press": 48, "trial_index": 234, "congruency": ["incongruent"], "correct": false, "alignment": ["aligned"]}, {"rt": -1, "trial_type": "single-stim", "stimulus": "<div class = imageBox><img class = image src = img/line_images/12_target_01_01.png </img></div>", "trial_id": "target", "time_elapsed": 329283, "internal_node_id": "0.0-235.0", "key_press": -1, "trial_index": 235}, {"rt": -1, "trial_type": "single-stim", "stimulus": "<div class = imageBox><img class = image src = img/Pmask3.jpg </img></div>", "trial_id": "mask", "time_elapsed": 330688, "internal_node_id": "0.0-236.0", "key_press": -1, "trial_index": 236}, {"rt": -1, "trial_type": "single-stim", "stimulus": "<div class = imageBox><img class = image src = img/line_images/12_mis_01_02.png </img></div>", "trial_id": "probe", "time_elapsed": 331894, "internal_node_id": "0.0-237.0", "key_press": -1, "trial_index": 237}, {"rt": 140, "trial_type": "single-stim", "stimulus": "<div class = centerbox style = text-align:center><p style = font-size:50px>Same or different? </p></div>", "trial_id": "response_line", "time_elapsed": 333038, "response": ["same"], "internal_node_id": "0.0-238.0", "key_press": 49, "trial_index": 238, "congruency": ["incongruent"], "correct": true, "alignment": ["misaligned"]}, {"rt": -1, "trial_type": "single-stim", "stimulus": "<div class = imageBox><img class = image src = img/line_images/4_target_01_01.png </img></div>", "trial_id": "target", "time_elapsed": 334243, "internal_node_id": "0.0-239.0", "key_press": -1, "trial_index": 239}, {"rt": -1, "trial_type": "single-stim", "stimulus": "<div class = imageBox><img class = image src = img/Pmask1.jpg </img></div>", "trial_id": "mask", "time_elapsed": 335649, "internal_node_id": "0.0-240.0", "key_press": -1, "trial_index": 240}, {"rt": -1, "trial_type": "single-stim", "stimulus": "<div class = imageBox><img class = image src = img/line_images/4_mis_02_01.png </img></div>", "trial_id": "probe", "time_elapsed": 336854, "internal_node_id": "0.0-241.0", "key_press": -1, "trial_index": 241}, {"rt": 92, "trial_type": "single-stim", "stimulus": "<div class = centerbox style = text-align:center><p style = font-size:50px>Same or different? </p></div>", "trial_id": "response_line", "time_elapsed": 337950, "response": ["different"], "internal_node_id": "0.0-242.0", "key_press": 48, "trial_index": 242, "congruency": ["incongruent"], "correct": true, "alignment": ["misaligned"]}, {"rt": -1, "trial_type": "single-stim", "stimulus": "<div class = imageBox><img class = image src = img/line_images/5_target_01_01.png </img></div>", "trial_id": "target", "time_elapsed": 339156, "internal_node_id": "0.0-243.0", "key_press": -1, "trial_index": 243}, {"rt": -1, "trial_type": "single-stim", "stimulus": "<div class = imageBox><img class = image src = img/Pmask3.jpg </img></div>", "trial_id": "mask", "time_elapsed": 340562, "internal_node_id": "0.0-244.0", "key_press": -1, "trial_index": 244}, {"rt": -1, "trial_type": "single-stim", "stimulus": "<div class = imageBox><img class = image src = img/line_images/5_mis_02_02.png </img></div>", "trial_id": "probe", "time_elapsed": 341767, "internal_node_id": "0.0-245.0", "key_press": -1, "trial_index": 245}, {"rt": 104, "trial_type": "single-stim", "stimulus": "<div class = centerbox style = text-align:center><p style = font-size:50px>Same or different? </p></div>", "trial_id": "response_line", "time_elapsed": 342874, "response": ["different"], "internal_node_id": "0.0-246.0", "key_press": 48, "trial_index": 246, "congruency": ["congruent"], "correct": true, "alignment": ["misaligned"]}, {"rt": -1, "trial_type": "single-stim", "stimulus": "<div class = imageBox><img class = image src = img/line_images/9_target_01_01.png </img></div>", "trial_id": "target", "time_elapsed": 344080, "internal_node_id": "0.0-247.0", "key_press": -1, "trial_index": 247}, {"rt": -1, "trial_type": "single-stim", "stimulus": "<div class = imageBox><img class = image src = img/Pmask1.jpg </img></div>", "trial_id": "mask", "time_elapsed": 345485, "internal_node_id": "0.0-248.0", "key_press": -1, "trial_index": 248}, {"rt": -1, "trial_type": "single-stim", "stimulus": "<div class = imageBox><img class = image src = img/line_images/9_al_01_01.png </img></div>", "trial_id": "probe", "time_elapsed": 346691, "internal_node_id": "0.0-249.0", "key_press": -1, "trial_index": 249}, {"rt": 349, "trial_type": "single-stim", "stimulus": "<div class = centerbox style = text-align:center><p style = font-size:50px>Same or different? </p></div>", "trial_id": "response_line", "time_elapsed": 348043, "response": ["same"], "internal_node_id": "0.0-250.0", "key_press": 48, "trial_index": 250, "congruency": ["congruent"], "correct": false, "alignment": ["aligned"]}, {"rt": -1, "trial_type": "single-stim", "stimulus": "<div class = imageBox><img class = image src = img/line_images/5_target_01_01.png </img></div>", "trial_id": "target", "time_elapsed": 349248, "internal_node_id": "0.0-251.0", "key_press": -1, "trial_index": 251}, {"rt": -1, "trial_type": "single-stim", "stimulus": "<div class = imageBox><img class = image src = img/Pmask4.jpg </img></div>", "trial_id": "mask", "time_elapsed": 350655, "internal_node_id": "0.0-252.0", "key_press": -1, "trial_index": 252}, {"rt": -1, "trial_type": "single-stim", "stimulus": "<div class = imageBox><img class = image src = img/line_images/5_al_01_01.png </img></div>", "trial_id": "probe", "time_elapsed": 351860, "internal_node_id": "0.0-253.0", "key_press": -1, "trial_index": 253}, {"rt": 224, "trial_type": "single-stim", "stimulus": "<div class = centerbox style = text-align:center><p style = font-size:50px>Same or different? </p></div>", "trial_id": "response_line", "time_elapsed": 353088, "response": ["same"], "internal_node_id": "0.0-254.0", "key_press": 49, "trial_index": 254, "congruency": ["congruent"], "correct": true, "alignment": ["aligned"]}, {"rt": -1, "trial_type": "single-stim", "stimulus": "<div class = imageBox><img class = image src = img/line_images/14_target_01_01.png </img></div>", "trial_id": "target", "time_elapsed": 354297, "internal_node_id": "0.0-255.0", "key_press": -1, "trial_index": 255}, {"rt": -1, "trial_type": "single-stim", "stimulus": "<div class = imageBox><img class = image src = img/Pmask3.jpg </img></div>", "trial_id": "mask", "time_elapsed": 355701, "internal_node_id": "0.0-256.0", "key_press": -1, "trial_index": 256}, {"rt": -1, "trial_type": "single-stim", "stimulus": "<div class = imageBox><img class = image src = img/line_images/14_mis_02_02.png </img></div>", "trial_id": "probe", "time_elapsed": 356909, "internal_node_id": "0.0-257.0", "key_press": -1, "trial_index": 257}, {"rt": 237, "trial_type": "single-stim", "stimulus": "<div class = centerbox style = text-align:center><p style = font-size:50px>Same or different? </p></div>", "trial_id": "response_line", "time_elapsed": 358151, "response": ["different"], "internal_node_id": "0.0-258.0", "key_press": 49, "trial_index": 258, "congruency": ["congruent"], "correct": false, "alignment": ["misaligned"]}, {"rt": -1, "trial_type": "single-stim", "stimulus": "<div class = imageBox><img class = image src = img/line_images/17_target_01_01.png </img></div>", "trial_id": "target", "time_elapsed": 359357, "internal_node_id": "0.0-259.0", "key_press": -1, "trial_index": 259}, {"rt": -1, "trial_type": "single-stim", "stimulus": "<div class = imageBox><img class = image src = img/Pmask3.jpg </img></div>", "trial_id": "mask", "time_elapsed": 360762, "internal_node_id": "0.0-260.0", "key_press": -1, "trial_index": 260}, {"rt": -1, "trial_type": "single-stim", "stimulus": "<div class = imageBox><img class = image src = img/line_images/17_al_01_02.png </img></div>", "trial_id": "probe", "time_elapsed": 361966, "internal_node_id": "0.0-261.0", "key_press": -1, "trial_index": 261}, {"rt": 72, "trial_type": "single-stim", "stimulus": "<div class = centerbox style = text-align:center><p style = font-size:50px>Same or different? </p></div>", "trial_id": "response_line", "time_elapsed": 363043, "response": ["same"], "internal_node_id": "0.0-262.0", "key_press": 49, "trial_index": 262, "congruency": ["incongruent"], "correct": true, "alignment": ["aligned"]}, {"rt": -1, "trial_type": "single-stim", "stimulus": "<div class = imageBox><img class = image src = img/line_images/20_target_01_01.png </img></div>", "trial_id": "target", "time_elapsed": 364248, "internal_node_id": "0.0-263.0", "key_press": -1, "trial_index": 263}, {"rt": -1, "trial_type": "single-stim", "stimulus": "<div class = imageBox><img class = image src = img/Pmask5.jpg </img></div>", "trial_id": "mask", "time_elapsed": 365653, "internal_node_id": "0.0-264.0", "key_press": -1, "trial_index": 264}, {"rt": -1, "trial_type": "single-stim", "stimulus": "<div class = imageBox><img class = image src = img/line_images/20_al_01_01.png </img></div>", "trial_id": "probe", "time_elapsed": 366858, "internal_node_id": "0.0-265.0", "key_press": -1, "trial_index": 265}, {"rt": 236, "trial_type": "single-stim", "stimulus": "<div class = centerbox style = text-align:center><p style = font-size:50px>Same or different? </p></div>", "trial_id": "response_line", "time_elapsed": 368099, "response": ["same"], "internal_node_id": "0.0-266.0", "key_press": 48, "trial_index": 266, "congruency": ["congruent"], "correct": false, "alignment": ["aligned"]}, {"rt": -1, "trial_type": "single-stim", "stimulus": "<div class = imageBox><img class = image src = img/line_images/5_target_01_01.png </img></div>", "trial_id": "target", "time_elapsed": 369305, "internal_node_id": "0.0-267.0", "key_press": -1, "trial_index": 267}, {"rt": -1, "trial_type": "single-stim", "stimulus": "<div class = imageBox><img class = image src = img/Pmask1.jpg </img></div>", "trial_id": "mask", "time_elapsed": 370711, "internal_node_id": "0.0-268.0", "key_press": -1, "trial_index": 268}, {"rt": -1, "trial_type": "single-stim", "stimulus": "<div class = imageBox><img class = image src = img/line_images/5_al_02_01.png </img></div>", "trial_id": "probe", "time_elapsed": 371916, "internal_node_id": "0.0-269.0", "key_press": -1, "trial_index": 269}, {"rt": 214, "trial_type": "single-stim", "stimulus": "<div class = centerbox style = text-align:center><p style = font-size:50px>Same or different? </p></div>", "trial_id": "response_line", "time_elapsed": 373136, "response": ["different"], "internal_node_id": "0.0-270.0", "key_press": 48, "trial_index": 270, "congruency": ["incongruent"], "correct": true, "alignment": ["aligned"]}, {"rt": -1, "trial_type": "single-stim", "stimulus": "<div class = imageBox><img class = image src = img/line_images/12_target_01_01.png </img></div>", "trial_id": "target", "time_elapsed": 374341, "internal_node_id": "0.0-271.0", "key_press": -1, "trial_index": 271}, {"rt": -1, "trial_type": "single-stim", "stimulus": "<div class = imageBox><img class = image src = img/Pmask2.jpg </img></div>", "trial_id": "mask", "time_elapsed": 375746, "internal_node_id": "0.0-272.0", "key_press": -1, "trial_index": 272}, {"rt": -1, "trial_type": "single-stim", "stimulus": "<div class = imageBox><img class = image src = img/line_images/12_al_02_02.png </img></div>", "trial_id": "probe", "time_elapsed": 376951, "internal_node_id": "0.0-273.0", "key_press": -1, "trial_index": 273}, {"rt": 162, "trial_type": "single-stim", "stimulus": "<div class = centerbox style = text-align:center><p style = font-size:50px>Same or different? </p></div>", "trial_id": "response_line", "time_elapsed": 378118, "response": ["different"], "internal_node_id": "0.0-274.0", "key_press": 48, "trial_index": 274, "congruency": ["congruent"], "correct": true, "alignment": ["aligned"]}, {"rt": -1, "trial_type": "single-stim", "stimulus": "<div class = imageBox><img class = image src = img/line_images/15_target_01_01.png </img></div>", "trial_id": "target", "time_elapsed": 379323, "internal_node_id": "0.0-275.0", "key_press": -1, "trial_index": 275}, {"rt": -1, "trial_type": "single-stim", "stimulus": "<div class = imageBox><img class = image src = img/Pmask3.jpg </img></div>", "trial_id": "mask", "time_elapsed": 380729, "internal_node_id": "0.0-276.0", "key_press": -1, "trial_index": 276}, {"rt": -1, "trial_type": "single-stim", "stimulus": "<div class = imageBox><img class = image src = img/line_images/15_mis_02_02.png </img></div>", "trial_id": "probe", "time_elapsed": 381934, "internal_node_id": "0.0-277.0", "key_press": -1, "trial_index": 277}, {"rt": 148, "trial_type": "single-stim", "stimulus": "<div class = centerbox style = text-align:center><p style = font-size:50px>Same or different? </p></div>", "trial_id": "response_line", "time_elapsed": 383086, "response": ["different"], "internal_node_id": "0.0-278.0", "key_press": 48, "trial_index": 278, "congruency": ["congruent"], "correct": true, "alignment": ["misaligned"]}, {"rt": -1, "trial_type": "single-stim", "stimulus": "<div class = imageBox><img class = image src = img/line_images/14_target_01_01.png </img></div>", "trial_id": "target", "time_elapsed": 384291, "internal_node_id": "0.0-279.0", "key_press": -1, "trial_index": 279}, {"rt": -1, "trial_type": "single-stim", "stimulus": "<div class = imageBox><img class = image src = img/Pmask3.jpg </img></div>", "trial_id": "mask", "time_elapsed": 385697, "internal_node_id": "0.0-280.0", "key_press": -1, "trial_index": 280}, {"rt": -1, "trial_type": "single-stim", "stimulus": "<div class = imageBox><img class = image src = img/line_images/14_mis_01_02.png </img></div>", "trial_id": "probe", "time_elapsed": 386902, "internal_node_id": "0.0-281.0", "key_press": -1, "trial_index": 281}, {"rt": 77, "trial_type": "single-stim", "stimulus": "<div class = centerbox style = text-align:center><p style = font-size:50px>Same or different? </p></div>", "trial_id": "response_line", "time_elapsed": 387984, "response": ["same"], "internal_node_id": "0.0-282.0", "key_press": 49, "trial_index": 282, "congruency": ["incongruent"], "correct": true, "alignment": ["misaligned"]}, {"rt": -1, "trial_type": "single-stim", "stimulus": "<div class = imageBox><img class = image src = img/line_images/18_target_01_01.png </img></div>", "trial_id": "target", "time_elapsed": 389190, "internal_node_id": "0.0-283.0", "key_press": -1, "trial_index": 283}, {"rt": -1, "trial_type": "single-stim", "stimulus": "<div class = imageBox><img class = image src = img/Pmask1.jpg </img></div>", "trial_id": "mask", "time_elapsed": 390596, "internal_node_id": "0.0-284.0", "key_press": -1, "trial_index": 284}, {"rt": -1, "trial_type": "single-stim", "stimulus": "<div class = imageBox><img class = image src = img/line_images/18_mis_01_02.png </img></div>", "trial_id": "probe", "time_elapsed": 391802, "internal_node_id": "0.0-285.0", "key_press": -1, "trial_index": 285}, {"rt": 161, "trial_type": "single-stim", "stimulus": "<div class = centerbox style = text-align:center><p style = font-size:50px>Same or different? </p></div>", "trial_id": "response_line", "time_elapsed": 392968, "response": ["same"], "internal_node_id": "0.0-286.0", "key_press": 49, "trial_index": 286, "congruency": ["incongruent"], "correct": true, "alignment": ["misaligned"]}, {"rt": -1, "trial_type": "single-stim", "stimulus": "<div class = imageBox><img class = image src = img/line_images/7_target_01_01.png </img></div>", "trial_id": "target", "time_elapsed": 394174, "internal_node_id": "0.0-287.0", "key_press": -1, "trial_index": 287}, {"rt": -1, "trial_type": "single-stim", "stimulus": "<div class = imageBox><img class = image src = img/Pmask4.jpg </img></div>", "trial_id": "mask", "time_elapsed": 395580, "internal_node_id": "0.0-288.0", "key_press": -1, "trial_index": 288}, {"rt": -1, "trial_type": "single-stim", "stimulus": "<div class = imageBox><img class = image src = img/line_images/7_al_02_02.png </img></div>", "trial_id": "probe", "time_elapsed": 396785, "internal_node_id": "0.0-289.0", "key_press": -1, "trial_index": 289}, {"rt": 198, "trial_type": "single-stim", "stimulus": "<div class = centerbox style = text-align:center><p style = font-size:50px>Same or different? </p></div>", "trial_id": "response_line", "time_elapsed": 397988, "response": ["different"], "internal_node_id": "0.0-290.0", "key_press": 48, "trial_index": 290, "congruency": ["congruent"], "correct": true, "alignment": ["aligned"]}, {"rt": -1, "trial_type": "single-stim", "stimulus": "<div class = imageBox><img class = image src = img/line_images/11_target_01_01.png </img></div>", "trial_id": "target", "time_elapsed": 399194, "internal_node_id": "0.0-291.0", "key_press": -1, "trial_index": 291}, {"rt": -1, "trial_type": "single-stim", "stimulus": "<div class = imageBox><img class = image src = img/Pmask3.jpg </img></div>", "trial_id": "mask", "time_elapsed": 400599, "internal_node_id": "0.0-292.0", "key_press": -1, "trial_index": 292}, {"rt": -1, "trial_type": "single-stim", "stimulus": "<div class = imageBox><img class = image src = img/line_images/11_al_01_01.png </img></div>", "trial_id": "probe", "time_elapsed": 401804, "internal_node_id": "0.0-293.0", "key_press": -1, "trial_index": 293}, {"rt": 301, "trial_type": "single-stim", "stimulus": "<div class = centerbox style = text-align:center><p style = font-size:50px>Same or different? </p></div>", "trial_id": "response_line", "time_elapsed": 403108, "response": ["same"], "internal_node_id": "0.0-294.0", "key_press": 48, "trial_index": 294, "congruency": ["congruent"], "correct": false, "alignment": ["aligned"]}, {"rt": -1, "trial_type": "single-stim", "stimulus": "<div class = imageBox><img class = image src = img/line_images/16_target_01_01.png </img></div>", "trial_id": "target", "time_elapsed": 404313, "internal_node_id": "0.0-295.0", "key_press": -1, "trial_index": 295}, {"rt": -1, "trial_type": "single-stim", "stimulus": "<div class = imageBox><img class = image src = img/Pmask4.jpg </img></div>", "trial_id": "mask", "time_elapsed": 405719, "internal_node_id": "0.0-296.0", "key_press": -1, "trial_index": 296}, {"rt": -1, "trial_type": "single-stim", "stimulus": "<div class = imageBox><img class = image src = img/line_images/16_mis_01_02.png </img></div>", "trial_id": "probe", "time_elapsed": 406924, "internal_node_id": "0.0-297.0", "key_press": -1, "trial_index": 297}, {"rt": 414, "trial_type": "single-stim", "stimulus": "<div class = centerbox style = text-align:center><p style = font-size:50px>Same or different? </p></div>", "trial_id": "response_line", "time_elapsed": 408343, "response": ["same"], "internal_node_id": "0.0-298.0", "key_press": 49, "trial_index": 298, "congruency": ["incongruent"], "correct": true, "alignment": ["misaligned"]}, {"rt": -1, "trial_type": "single-stim", "stimulus": "<div class = imageBox><img class = image src = img/line_images/11_target_01_01.png </img></div>", "trial_id": "target", "time_elapsed": 409549, "internal_node_id": "0.0-299.0", "key_press": -1, "trial_index": 299}, {"rt": -1, "trial_type": "single-stim", "stimulus": "<div class = imageBox><img class = image src = img/Pmask1.jpg </img></div>", "trial_id": "mask", "time_elapsed": 410954, "internal_node_id": "0.0-300.0", "key_press": -1, "trial_index": 300}, {"rt": -1, "trial_type": "single-stim", "stimulus": "<div class = imageBox><img class = image src = img/line_images/11_al_01_02.png </img></div>", "trial_id": "probe", "time_elapsed": 412159, "internal_node_id": "0.0-301.0", "key_press": -1, "trial_index": 301}, {"rt": 321, "trial_type": "single-stim", "stimulus": "<div class = centerbox style = text-align:center><p style = font-size:50px>Same or different? </p></div>", "trial_id": "response_line", "time_elapsed": 413484, "response": ["same"], "internal_node_id": "0.0-302.0", "key_press": 49, "trial_index": 302, "congruency": ["incongruent"], "correct": true, "alignment": ["aligned"]}, {"rt": -1, "trial_type": "single-stim", "stimulus": "<div class = imageBox><img class = image src = img/line_images/19_target_01_01.png </img></div>", "trial_id": "target", "time_elapsed": 414690, "internal_node_id": "0.0-303.0", "key_press": -1, "trial_index": 303}, {"rt": -1, "trial_type": "single-stim", "stimulus": "<div class = imageBox><img class = image src = img/Pmask4.jpg </img></div>", "trial_id": "mask", "time_elapsed": 416096, "internal_node_id": "0.0-304.0", "key_press": -1, "trial_index": 304}, {"rt": -1, "trial_type": "single-stim", "stimulus": "<div class = imageBox><img class = image src = img/line_images/19_al_02_02.png </img></div>", "trial_id": "probe", "time_elapsed": 417301, "internal_node_id": "0.0-305.0", "key_press": -1, "trial_index": 305}, {"rt": 241, "trial_type": "single-stim", "stimulus": "<div class = centerbox style = text-align:center><p style = font-size:50px>Same or different? </p></div>", "trial_id": "response_line", "time_elapsed": 418547, "response": ["different"], "internal_node_id": "0.0-306.0", "key_press": 48, "trial_index": 306, "congruency": ["congruent"], "correct": true, "alignment": ["aligned"]}, {"rt": -1, "trial_type": "single-stim", "stimulus": "<div class = imageBox><img class = image src = img/line_images/6_target_01_01.png </img></div>", "trial_id": "target", "time_elapsed": 419753, "internal_node_id": "0.0-307.0", "key_press": -1, "trial_index": 307}, {"rt": -1, "trial_type": "single-stim", "stimulus": "<div class = imageBox><img class = image src = img/Pmask4.jpg </img></div>", "trial_id": "mask", "time_elapsed": 421159, "internal_node_id": "0.0-308.0", "key_press": -1, "trial_index": 308}, {"rt": -1, "trial_type": "single-stim", "stimulus": "<div class = imageBox><img class = image src = img/line_images/6_al_02_02.png </img></div>", "trial_id": "probe", "time_elapsed": 422364, "internal_node_id": "0.0-309.0", "key_press": -1, "trial_index": 309}, {"rt": 198, "trial_type": "single-stim", "stimulus": "<div class = centerbox style = text-align:center><p style = font-size:50px>Same or different? </p></div>", "trial_id": "response_line", "time_elapsed": 423566, "response": ["different"], "internal_node_id": "0.0-310.0", "key_press": 48, "trial_index": 310, "congruency": ["congruent"], "correct": true, "alignment": ["aligned"]}, {"rt": -1, "trial_type": "single-stim", "stimulus": "<div class = imageBox><img class = image src = img/line_images/17_target_01_01.png </img></div>", "trial_id": "target", "time_elapsed": 424771, "internal_node_id": "0.0-311.0", "key_press": -1, "trial_index": 311}, {"rt": -1, "trial_type": "single-stim", "stimulus": "<div class = imageBox><img class = image src = img/Pmask3.jpg </img></div>", "trial_id": "mask", "time_elapsed": 426178, "internal_node_id": "0.0-312.0", "key_press": -1, "trial_index": 312}, {"rt": -1, "trial_type": "single-stim", "stimulus": "<div class = imageBox><img class = image src = img/line_images/17_al_02_01.png </img></div>", "trial_id": "probe", "time_elapsed": 427383, "internal_node_id": "0.0-313.0", "key_press": -1, "trial_index": 313}, {"rt": 226, "trial_type": "single-stim", "stimulus": "<div class = centerbox style = text-align:center><p style = font-size:50px>Same or different? </p></div>", "trial_id": "response_line", "time_elapsed": 428615, "response": ["different"], "internal_node_id": "0.0-314.0", "key_press": 49, "trial_index": 314, "congruency": ["incongruent"], "correct": false, "alignment": ["aligned"]}, {"rt": -1, "trial_type": "single-stim", "stimulus": "<div class = imageBox><img class = image src = img/line_images/4_target_01_01.png </img></div>", "trial_id": "target", "time_elapsed": 429821, "internal_node_id": "0.0-315.0", "key_press": -1, "trial_index": 315}, {"rt": -1, "trial_type": "single-stim", "stimulus": "<div class = imageBox><img class = image src = img/Pmask4.jpg </img></div>", "trial_id": "mask", "time_elapsed": 431226, "internal_node_id": "0.0-316.0", "key_press": -1, "trial_index": 316}, {"rt": -1, "trial_type": "single-stim", "stimulus": "<div class = imageBox><img class = image src = img/line_images/4_al_01_01.png </img></div>", "trial_id": "probe", "time_elapsed": 432431, "internal_node_id": "0.0-317.0", "key_press": -1, "trial_index": 317}, {"rt": 181, "trial_type": "single-stim", "stimulus": "<div class = centerbox style = text-align:center><p style = font-size:50px>Same or different? </p></div>", "trial_id": "response_line", "time_elapsed": 433615, "response": ["same"], "internal_node_id": "0.0-318.0", "key_press": 49, "trial_index": 318, "congruency": ["congruent"], "correct": true, "alignment": ["aligned"]}, {"rt": -1, "trial_type": "single-stim", "stimulus": "<div class = imageBox><img class = image src = img/line_images/20_target_01_01.png </img></div>", "trial_id": "target", "time_elapsed": 434821, "internal_node_id": "0.0-319.0", "key_press": -1, "trial_index": 319}, {"rt": -1, "trial_type": "single-stim", "stimulus": "<div class = imageBox><img class = image src = img/Pmask3.jpg </img></div>", "trial_id": "mask", "time_elapsed": 436227, "internal_node_id": "0.0-320.0", "key_press": -1, "trial_index": 320}, {"rt": -1, "trial_type": "single-stim", "stimulus": "<div class = imageBox><img class = image src = img/line_images/20_al_02_02.png </img></div>", "trial_id": "probe", "time_elapsed": 437432, "internal_node_id": "0.0-321.0", "key_press": -1, "trial_index": 321}, {"rt": 345, "trial_type": "single-stim", "stimulus": "<div class = centerbox style = text-align:center><p style = font-size:50px>Same or different? </p></div>", "trial_id": "response_line", "time_elapsed": 438782, "response": ["different"], "internal_node_id": "0.0-322.0", "key_press": 48, "trial_index": 322, "congruency": ["congruent"], "correct": true, "alignment": ["aligned"]}, {"rt": -1, "trial_type": "single-stim", "stimulus": "<div class = imageBox><img class = image src = img/line_images/18_target_01_01.png </img></div>", "trial_id": "target", "time_elapsed": 439989, "internal_node_id": "0.0-323.0", "key_press": -1, "trial_index": 323}, {"rt": -1, "trial_type": "single-stim", "stimulus": "<div class = imageBox><img class = image src = img/Pmask4.jpg </img></div>", "trial_id": "mask", "time_elapsed": 441395, "internal_node_id": "0.0-324.0", "key_press": -1, "trial_index": 324}, {"rt": -1, "trial_type": "single-stim", "stimulus": "<div class = imageBox><img class = image src = img/line_images/18_al_02_02.png </img></div>", "trial_id": "probe", "time_elapsed": 442600, "internal_node_id": "0.0-325.0", "key_press": -1, "trial_index": 325}, {"rt": 201, "trial_type": "single-stim", "stimulus": "<div class = centerbox style = text-align:center><p style = font-size:50px>Same or different? </p></div>", "trial_id": "response_line", "time_elapsed": 443805, "response": ["different"], "internal_node_id": "0.0-326.0", "key_press": 48, "trial_index": 326, "congruency": ["congruent"], "correct": true, "alignment": ["aligned"]}, {"rt": -1, "trial_type": "single-stim", "stimulus": "<div class = imageBox><img class = image src = img/line_images/19_target_01_01.png </img></div>", "trial_id": "target", "time_elapsed": 445013, "internal_node_id": "0.0-327.0", "key_press": -1, "trial_index": 327}, {"rt": -1, "trial_type": "single-stim", "stimulus": "<div class = imageBox><img class = image src = img/Pmask2.jpg </img></div>", "trial_id": "mask", "time_elapsed": 446418, "internal_node_id": "0.0-328.0", "key_press": -1, "trial_index": 328}, {"rt": -1, "trial_type": "single-stim", "stimulus": "<div class = imageBox><img class = image src = img/line_images/19_mis_02_02.png </img></div>", "trial_id": "probe", "time_elapsed": 447624, "internal_node_id": "0.0-329.0", "key_press": -1, "trial_index": 329}, {"rt": 231, "trial_type": "single-stim", "stimulus": "<div class = centerbox style = text-align:center><p style = font-size:50px>Same or different? </p></div>", "trial_id": "response_line", "time_elapsed": 448860, "response": ["different"], "internal_node_id": "0.0-330.0", "key_press": 48, "trial_index": 330, "congruency": ["congruent"], "correct": true, "alignment": ["misaligned"]}, {"rt": -1, "trial_type": "single-stim", "stimulus": "<div class = imageBox><img class = image src = img/line_images/8_target_01_01.png </img></div>", "trial_id": "target", "time_elapsed": 450065, "internal_node_id": "0.0-331.0", "key_press": -1, "trial_index": 331}, {"rt": -1, "trial_type": "single-stim", "stimulus": "<div class = imageBox><img class = image src = img/Pmask1.jpg </img></div>", "trial_id": "mask", "time_elapsed": 451470, "internal_node_id": "0.0-332.0", "key_press": -1, "trial_index": 332}, {"rt": -1, "trial_type": "single-stim", "stimulus": "<div class = imageBox><img class = image src = img/line_images/8_mis_02_01.png </img></div>", "trial_id": "probe", "time_elapsed": 452676, "internal_node_id": "0.0-333.0", "key_press": -1, "trial_index": 333}, {"rt": 19, "trial_type": "single-stim", "stimulus": "<div class = centerbox style = text-align:center><p style = font-size:50px>Same or different? </p></div>", "trial_id": "response_line", "time_elapsed": 453699, "response": ["different"], "internal_node_id": "0.0-334.0", "key_press": 48, "trial_index": 334, "congruency": ["incongruent"], "correct": true, "alignment": ["misaligned"]}, {"rt": -1, "trial_type": "single-stim", "stimulus": "<div class = imageBox><img class = image src = img/line_images/18_target_01_01.png </img></div>", "trial_id": "target", "time_elapsed": 454903, "internal_node_id": "0.0-335.0", "key_press": -1, "trial_index": 335}, {"rt": -1, "trial_type": "single-stim", "stimulus": "<div class = imageBox><img class = image src = img/Pmask2.jpg </img></div>", "trial_id": "mask", "time_elapsed": 456309, "internal_node_id": "0.0-336.0", "key_press": -1, "trial_index": 336}, {"rt": -1, "trial_type": "single-stim", "stimulus": "<div class = imageBox><img class = image src = img/line_images/18_mis_01_01.png </img></div>", "trial_id": "probe", "time_elapsed": 457514, "internal_node_id": "0.0-337.0", "key_press": -1, "trial_index": 337}, {"rt": 216, "trial_type": "single-stim", "stimulus": "<div class = centerbox style = text-align:center><p style = font-size:50px>Same or different? </p></div>", "trial_id": "response_line", "time_elapsed": 458736, "response": ["same"], "internal_node_id": "0.0-338.0", "key_press": 49, "trial_index": 338, "congruency": ["congruent"], "correct": true, "alignment": ["misaligned"]}, {"rt": -1, "trial_type": "single-stim", "stimulus": "<div class = imageBox><img class = image src = img/line_images/3_target_01_01.png </img></div>", "trial_id": "target", "time_elapsed": 459943, "internal_node_id": "0.0-339.0", "key_press": -1, "trial_index": 339}, {"rt": -1, "trial_type": "single-stim", "stimulus": "<div class = imageBox><img class = image src = img/Pmask1.jpg </img></div>", "trial_id": "mask", "time_elapsed": 461349, "internal_node_id": "0.0-340.0", "key_press": -1, "trial_index": 340}, {"rt": -1, "trial_type": "single-stim", "stimulus": "<div class = imageBox><img class = image src = img/line_images/3_mis_01_02.png </img></div>", "trial_id": "probe", "time_elapsed": 462555, "internal_node_id": "0.0-341.0", "key_press": -1, "trial_index": 341}, {"rt": 298, "trial_type": "single-stim", "stimulus": "<div class = centerbox style = text-align:center><p style = font-size:50px>Same or different? </p></div>", "trial_id": "response_line", "time_elapsed": 463858, "response": ["same"], "internal_node_id": "0.0-342.0", "key_press": 48, "trial_index": 342, "congruency": ["incongruent"], "correct": false, "alignment": ["misaligned"]}, {"rt": -1, "trial_type": "single-stim", "stimulus": "<div class = imageBox><img class = image src = img/line_images/3_target_01_01.png </img></div>", "trial_id": "target", "time_elapsed": 465063, "internal_node_id": "0.0-343.0", "key_press": -1, "trial_index": 343}, {"rt": -1, "trial_type": "single-stim", "stimulus": "<div class = imageBox><img class = image src = img/Pmask2.jpg </img></div>", "trial_id": "mask", "time_elapsed": 466468, "internal_node_id": "0.0-344.0", "key_press": -1, "trial_index": 344}, {"rt": -1, "trial_type": "single-stim", "stimulus": "<div class = imageBox><img class = image src = img/line_images/3_al_01_02.png </img></div>", "trial_id": "probe", "time_elapsed": 467673, "internal_node_id": "0.0-345.0", "key_press": -1, "trial_index": 345}, {"rt": 214, "trial_type": "single-stim", "stimulus": "<div class = centerbox style = text-align:center><p style = font-size:50px>Same or different? </p></div>", "trial_id": "response_line", "time_elapsed": 468894, "response": ["same"], "internal_node_id": "0.0-346.0", "key_press": 49, "trial_index": 346, "congruency": ["incongruent"], "correct": true, "alignment": ["aligned"]}, {"rt": -1, "trial_type": "single-stim", "stimulus": "<div class = imageBox><img class = image src = img/line_images/7_target_01_01.png </img></div>", "trial_id": "target", "time_elapsed": 470099, "internal_node_id": "0.0-347.0", "key_press": -1, "trial_index": 347}, {"rt": -1, "trial_type": "single-stim", "stimulus": "<div class = imageBox><img class = image src = img/Pmask3.jpg </img></div>", "trial_id": "mask", "time_elapsed": 471505, "internal_node_id": "0.0-348.0", "key_press": -1, "trial_index": 348}, {"rt": -1, "trial_type": "single-stim", "stimulus": "<div class = imageBox><img class = image src = img/line_images/7_mis_02_02.png </img></div>", "trial_id": "probe", "time_elapsed": 472711, "internal_node_id": "0.0-349.0", "key_press": -1, "trial_index": 349}, {"rt": 299, "trial_type": "single-stim", "stimulus": "<div class = centerbox style = text-align:center><p style = font-size:50px>Same or different? </p></div>", "trial_id": "response_line", "time_elapsed": 474014, "response": ["different"], "internal_node_