{"AutoApprovalTime": "2017-12-06T23:13:34Z", "AssignmentId": "3WSELTNVR3278QUK9R5IQ2KU6ASTA7", "WorkerId": "anon14", "answers": {"data": [{"rt": -1, "trial_type": "text", "time_elapsed": 2846, "internal_node_id": "0.0-0.0", "key_press": 13, "trial_index": 0}, {"rt": -1, "trial_type": "text", "time_elapsed": 48913, "internal_node_id": "0.0-1.0", "key_press": 13, "trial_index": 1}, {"rt": -1, "trial_type": "single-stim", "stimulus": "<div class = imageBox><img class = image src = img/line_images/21_target_01_01.png </img></div>", "time_elapsed": 51361, "internal_node_id": "0.0-2.0", "key_press": -1, "trial_index": 2}, {"rt": -1, "trial_type": "single-stim", "stimulus": "<div class = imageBox><img class = image src = img/Pmask5.jpg </img></div>", "trial_id": "mask", "time_elapsed": 52779, "internal_node_id": "0.0-3.0", "key_press": -1, "trial_index": 3}, {"rt": -1, "trial_type": "single-stim", "stimulus": "<div class = imageBox><img class = image src = img/line_images/21_al_02_02.png </img></div>", "time_elapsed": 54238, "internal_node_id": "0.0-4.0", "key_press": -1, "trial_index": 4}, {"rt": -1, "trial_type": "single-stim", "stimulus": "<div class = centerbox style = text-align:center><p style = font-size:50px>Same or different? </p></div>", "internal_node_id": "0.0-5.0", "response": ["different"], "time_elapsed": 58853, "key_press": 49, "correct": false, "trial_index": 5}, {"rt": -1, "trial_type": "single-stim", "stimulus": "<div class = centerbox style = text-align:center><p style = font-size:40px><span class = 'large' style = 'color:red'>Incorrect</span> </p></div>", "time_elapsed": 60415, "internal_node_id": "0.0-6.0", "key_press": -1, "trial_index": 6}, {"rt": -1, "trial_type": "single-stim", "stimulus": "<div class = imageBox><img class = image src = img/line_images/24_target_01_01.png </img></div>", "time_elapsed": 61856, "internal_node_id": "0.0-7.0", "key_press": -1, "trial_index": 7}, {"rt": -1, "trial_type": "single-stim", "stimulus": "<div class = imageBox><img class = image src = img/Pmask2.jpg </img></div>", "trial_id": "mask", "time_elapsed": 63317, "internal_node_id": "0.0-8.0", "key_press": -1, "trial_index": 8}, {"rt": -1, "trial_type": "single-stim", "stimulus": "<div class = imageBox><img class = image src = img/line_images/24_mis_01_01.png </img></div>", "time_elapsed": 64758, "internal_node_id": "0.0-9.0", "key_press": -1, "trial_index": 9}, {"rt": -1, "trial_type": "single-stim", "stimulus": "<div class = centerbox style = text-align:center><p style = font-size:50px>Same or different? </p></div>", "internal_node_id": "0.0-10.0", "response": ["same"], "time_elapsed": 66100, "key_press": 48, "correct": false, "trial_index": 10}, {"rt": -1, "trial_type": "single-stim", "stimulus": "<div class = centerbox style = text-align:center><p style = font-size:40px><span class = 'large' style = 'color:red'>Incorrect</span> </p></div>", "time_elapsed": 67653, "internal_node_id": "0.0-11.0", "key_press": -1, "trial_index": 11}, {"rt": -1, "trial_type": "single-stim", "stimulus": "<div class = imageBox><img class = image src = img/line_images/21_target_01_01.png </img></div>", "time_elapsed": 69086, "internal_node_id": "0.0-12.0", "key_press": -1, "trial_index": 12}, {"rt": -1, "trial_type": "single-stim", "stimulus": "<div class = imageBox><img class = image src = img/Pmask2.jpg </img></div>", "trial_id": "mask", "time_elapsed": 70541, "internal_node_id": "0.0-13.0", "key_press": -1, "trial_index": 13}, {"rt": -1, "trial_type": "single-stim", "stimulus": "<div class = imageBox><img class = image src = img/line_images/21_mis_02_01.png </img></div>", "time_elapsed": 71972, "internal_node_id": "0.0-14.0", "key_press": -1, "trial_index": 14}, {"rt": -1, "trial_type": "single-stim", "stimulus": "<div class = centerbox style = text-align:center><p style = font-size:50px>Same or different? </p></div>", "internal_node_id": "0.0-15.0", "response": ["different"], "time_elapsed": 73680, "key_press": 49, "correct": false, "trial_index": 15}, {"rt": -1, "trial_type": "single-stim", "stimulus": "<div class = centerbox style = text-align:center><p style = font-size:40px><span class = 'large' style = 'color:red'>Incorrect</span> </p></div>", "time_elapsed": 75236, "internal_node_id": "0.0-16.0", "key_press": -1, "trial_index": 16}, {"rt": -1, "trial_type": "single-stim", "stimulus": "<div class = imageBox><img class = image src = img/line_images/24_target_01_01.png </img></div>", "time_elapsed": 76663, "internal_node_id": "0.0-17.0", "key_press": -1, "trial_index": 17}, {"rt": -1, "trial_type": "single-stim", "stimulus": "<div class = imageBox><img class = image src = img/Pmask3.jpg </img></div>", "trial_id": "mask", "time_elapsed": 78072, "internal_node_id": "0.0-18.0", "key_press": -1, "trial_index": 18}, {"rt": -1, "trial_type": "single-stim", "stimulus": "<div class = imageBox><img class = image src = img/line_images/24_al_01_01.png </img></div>", "time_elapsed": 79503, "internal_node_id": "0.0-19.0", "key_press": -1, "trial_index": 19}, {"rt": -1, "trial_type": "single-stim", "stimulus": "<div class = centerbox style = text-align:center><p style = font-size:50px>Same or different? </p></div>", "internal_node_id": "0.0-20.0", "response": ["same"], "time_elapsed": 81002, "key_press": 49, "correct": true, "trial_index": 20}, {"rt": -1, "trial_type": "single-stim", "stimulus": "<div class = centerbox style = text-align:center><p style = font-size:40px><span class = 'large' style = 'color:green'>Correct!</span> </p></div>", "time_elapsed": 82546, "internal_node_id": "0.0-21.0", "key_press": -1, "trial_index": 21}, {"rt": -1, "trial_type": "single-stim", "stimulus": "<div class = imageBox><img class = image src = img/line_images/21_target_01_01.png </img></div>", "time_elapsed": 84012, "internal_node_id": "0.0-22.0", "key_press": -1, "trial_index": 22}, {"rt": -1, "trial_type": "single-stim", "stimulus": "<div class = imageBox><img class = image src = img/Pmask5.jpg </img></div>", "trial_id": "mask", "time_elapsed": 85456, "internal_node_id": "0.0-23.0", "key_press": -1, "trial_index": 23}, {"rt": -1, "trial_type": "single-stim", "stimulus": "<div class = imageBox><img class = image src = img/line_images/21_mis_01_01.png </img></div>", "time_elapsed": 86863, "internal_node_id": "0.0-24.0", "key_press": -1, "trial_index": 24}, {"rt": -1, "trial_type": "single-stim", "stimulus": "<div class = centerbox style = text-align:center><p style = font-size:50px>Same or different? </p></div>", "internal_node_id": "0.0-25.0", "response": ["same"], "time_elapsed": 88004, "key_press": 49, "correct": true, "trial_index": 25}, {"rt": -1, "trial_type": "single-stim", "stimulus": "<div class = centerbox style = text-align:center><p style = font-size:40px><span class = 'large' style = 'color:green'>Correct!</span> </p></div>", "time_elapsed": 89531, "internal_node_id": "0.0-26.0", "key_press": -1, "trial_index": 26}, {"rt": -1, "trial_type": "single-stim", "stimulus": "<div class = imageBox><img class = image src = img/line_images/21_target_01_01.png </img></div>", "time_elapsed": 90960, "internal_node_id": "0.0-27.0", "key_press": -1, "trial_index": 27}, {"rt": -1, "trial_type": "single-stim", "stimulus": "<div class = imageBox><img class = image src = img/Pmask2.jpg </img></div>", "trial_id": "mask", "time_elapsed": 92414, "internal_node_id": "0.0-28.0", "key_press": -1, "trial_index": 28}, {"rt": -1, "trial_type": "single-stim", "stimulus": "<div class = imageBox><img class = image src = img/line_images/21_al_01_01.png </img></div>", "time_elapsed": 93874, "internal_node_id": "0.0-29.0", "key_press": -1, "trial_index": 29}, {"rt": -1, "trial_type": "single-stim", "stimulus": "<div class = centerbox style = text-align:center><p style = font-size:50px>Same or different? </p></div>", "internal_node_id": "0.0-30.0", "response": ["same"], "time_elapsed": 94926, "key_press": 49, "correct": true, "trial_index": 30}, {"rt": -1, "trial_type": "single-stim", "stimulus": "<div class = centerbox style = text-align:center><p style = font-size:40px><span class = 'large' style = 'color:green'>Correct!</span> </p></div>", "time_elapsed": 96481, "internal_node_id": "0.0-31.0", "key_press": -1, "trial_index": 31}, {"rt": -1, "trial_type": "single-stim", "stimulus": "<div class = imageBox><img class = image src = img/line_images/22_target_01_01.png </img></div>", "time_elapsed": 97917, "internal_node_id": "0.0-32.0", "key_press": -1, "trial_index": 32}, {"rt": -1, "trial_type": "single-stim", "stimulus": "<div class = imageBox><img class = image src = img/Pmask4.jpg </img></div>", "trial_id": "mask", "time_elapsed": 99348, "internal_node_id": "0.0-33.0", "key_press": -1, "trial_index": 33}, {"rt": -1, "trial_type": "single-stim", "stimulus": "<div class = imageBox><img class = image src = img/line_images/22_al_01_02.png </img></div>", "time_elapsed": 100789, "internal_node_id": "0.0-34.0", "key_press": -1, "trial_index": 34}, {"rt": -1, "trial_type": "single-stim", "stimulus": "<div class = centerbox style = text-align:center><p style = font-size:50px>Same or different? </p></div>", "internal_node_id": "0.0-35.0", "response": ["same"], "time_elapsed": 101853, "key_press": 48, "correct": false, "trial_index": 35}, {"rt": -1, "trial_type": "single-stim", "stimulus": "<div class = centerbox style = text-align:center><p style = font-size:40px><span class = 'large' style = 'color:red'>Incorrect</span> </p></div>", "time_elapsed": 103396, "internal_node_id": "0.0-36.0", "key_press": -1, "trial_index": 36}, {"rt": -1, "trial_type": "single-stim", "stimulus": "<div class = imageBox><img class = image src = img/line_images/21_target_01_01.png </img></div>", "time_elapsed": 104846, "internal_node_id": "0.0-37.0", "key_press": -1, "trial_index": 37}, {"rt": -1, "trial_type": "single-stim", "stimulus": "<div class = imageBox><img class = image src = img/Pmask1.jpg </img></div>", "trial_id": "mask", "time_elapsed": 106324, "internal_node_id": "0.0-38.0", "key_press": -1, "trial_index": 38}, {"rt": -1, "trial_type": "single-stim", "stimulus": "<div class = imageBox><img class = image src = img/line_images/21_al_01_02.png </img></div>", "time_elapsed": 107740, "internal_node_id": "0.0-39.0", "key_press": -1, "trial_index": 39}, {"rt": -1, "trial_type": "single-stim", "stimulus": "<div class = centerbox style = text-align:center><p style = font-size:50px>Same or different? </p></div>", "internal_node_id": "0.0-40.0", "response": ["same"], "time_elapsed": 109247, "key_press": 48, "correct": false, "trial_index": 40}, {"rt": -1, "trial_type": "single-stim", "stimulus": "<div class = centerbox style = text-align:center><p style = font-size:40px><span class = 'large' style = 'color:red'>Incorrect</span> </p></div>", "time_elapsed": 110774, "internal_node_id": "0.0-41.0", "key_press": -1, "trial_index": 41}, {"rt": -1, "trial_type": "text", "time_elapsed": 121682, "internal_node_id": "0.0-42.0", "key_press": 13, "trial_index": 42}, {"rt": -1, "trial_type": "single-stim", "stimulus": "<div class = imageBox><img class = image src = img/line_images/11_target_01_01.png </img></div>", "trial_id": "target", "time_elapsed": 123957, "internal_node_id": "0.0-43.0", "key_press": -1, "trial_index": 43}, {"rt": -1, "trial_type": "single-stim", "stimulus": "<div class = imageBox><img class = image src = img/Pmask4.jpg </img></div>", "trial_id": "mask", "time_elapsed": 125492, "internal_node_id": "0.0-44.0", "key_press": -1, "trial_index": 44}, {"rt": -1, "trial_type": "single-stim", "stimulus": "<div class = imageBox><img class = image src = img/line_images/11_al_01_02.png </img></div>", "trial_id": "probe", "time_elapsed": 126753, "internal_node_id": "0.0-45.0", "key_press": -1, "trial_index": 45}, {"rt": 375, "trial_type": "single-stim", "stimulus": "<div class = centerbox style = text-align:center><p style = font-size:50px>Same or different? </p></div>", "trial_id": "response_line", "time_elapsed": 128142, "response": ["same"], "internal_node_id": "0.0-46.0", "key_press": 49, "trial_index": 46, "congruency": ["incongruent"], "correct": true, "alignment": ["aligned"]}, {"rt": -1, "trial_type": "single-stim", "stimulus": "<div class = imageBox><img class = image src = img/line_images/10_target_01_01.png </img></div>", "trial_id": "target", "time_elapsed": 129366, "internal_node_id": "0.0-47.0", "key_press": -1, "trial_index": 47}, {"rt": -1, "trial_type": "single-stim", "stimulus": "<div class = imageBox><img class = image src = img/Pmask2.jpg </img></div>", "trial_id": "mask", "time_elapsed": 130777, "internal_node_id": "0.0-48.0", "key_press": -1, "trial_index": 48}, {"rt": -1, "trial_type": "single-stim", "stimulus": "<div class = imageBox><img class = image src = img/line_images/10_al_02_01.png </img></div>", "trial_id": "probe", "time_elapsed": 132013, "internal_node_id": "0.0-49.0", "key_press": -1, "trial_index": 49}, {"rt": 1156, "trial_type": "single-stim", "stimulus": "<div class = centerbox style = text-align:center><p style = font-size:50px>Same or different? </p></div>", "trial_id": "response_line", "time_elapsed": 134178, "response": ["different"], "internal_node_id": "0.0-50.0", "key_press": 48, "trial_index": 50, "congruency": ["incongruent"], "correct": true, "alignment": ["aligned"]}, {"rt": -1, "trial_type": "single-stim", "stimulus": "<div class = imageBox><img class = image src = img/line_images/17_target_01_01.png </img></div>", "trial_id": "target", "time_elapsed": 135415, "internal_node_id": "0.0-51.0", "key_press": -1, "trial_index": 51}, {"rt": -1, "trial_type": "single-stim", "stimulus": "<div class = imageBox><img class = image src = img/Pmask1.jpg </img></div>", "trial_id": "mask", "time_elapsed": 136895, "internal_node_id": "0.0-52.0", "key_press": -1, "trial_index": 52}, {"rt": -1, "trial_type": "single-stim", "stimulus": "<div class = imageBox><img class = image src = img/line_images/17_mis_02_02.png </img></div>", "trial_id": "probe", "time_elapsed": 138138, "internal_node_id": "0.0-53.0", "key_press": -1, "trial_index": 53}, {"rt": 832, "trial_type": "single-stim", "stimulus": "<div class = centerbox style = text-align:center><p style = font-size:50px>Same or different? </p></div>", "trial_id": "response_line", "time_elapsed": 139985, "response": ["different"], "internal_node_id": "0.0-54.0", "key_press": 49, "trial_index": 54, "congruency": ["congruent"], "correct": false, "alignment": ["misaligned"]}, {"rt": -1, "trial_type": "single-stim", "stimulus": "<div class = imageBox><img class = image src = img/line_images/10_target_01_01.png </img></div>", "trial_id": "target", "time_elapsed": 141221, "internal_node_id": "0.0-55.0", "key_press": -1, "trial_index": 55}, {"rt": -1, "trial_type": "single-stim", "stimulus": "<div class = imageBox><img class = image src = img/Pmask2.jpg </img></div>", "trial_id": "mask", "time_elapsed": 142643, "internal_node_id": "0.0-56.0", "key_press": -1, "trial_index": 56}, {"rt": -1, "trial_type": "single-stim", "stimulus": "<div class = imageBox><img class = image src = img/line_images/10_al_01_01.png </img></div>", "trial_id": "probe", "time_elapsed": 143867, "internal_node_id": "0.0-57.0", "key_press": -1, "trial_index": 57}, {"rt": 1770, "trial_type": "single-stim", "stimulus": "<div class = centerbox style = text-align:center><p style = font-size:50px>Same or different? </p></div>", "trial_id": "response_line", "time_elapsed": 146705, "response": ["same"], "internal_node_id": "0.0-58.0", "key_press": 49, "trial_index": 58, "congruency": ["congruent"], "correct": true, "alignment": ["aligned"]}, {"rt": -1, "trial_type": "single-stim", "stimulus": "<div class = imageBox><img class = image src = img/line_images/4_target_01_01.png </img></div>", "trial_id": "target", "time_elapsed": 147920, "internal_node_id": "0.0-59.0", "key_press": -1, "trial_index": 59}, {"rt": -1, "trial_type": "single-stim", "stimulus": "<div class = imageBox><img class = image src = img/Pmask2.jpg </img></div>", "trial_id": "mask", "time_elapsed": 149370, "internal_node_id": "0.0-60.0", "key_press": -1, "trial_index": 60}, {"rt": -1, "trial_type": "single-stim", "stimulus": "<div class = imageBox><img class = image src = img/line_images/4_al_02_01.png </img></div>", "trial_id": "probe", "time_elapsed": 150630, "internal_node_id": "0.0-61.0", "key_press": -1, "trial_index": 61}, {"rt": 515, "trial_type": "single-stim", "stimulus": "<div class = centerbox style = text-align:center><p style = font-size:50px>Same or different? </p></div>", "trial_id": "response_line", "time_elapsed": 152161, "response": ["different"], "internal_node_id": "0.0-62.0", "key_press": 48, "trial_index": 62, "congruency": ["incongruent"], "correct": true, "alignment": ["aligned"]}, {"rt": -1, "trial_type": "single-stim", "stimulus": "<div class = imageBox><img class = image src = img/line_images/8_target_01_01.png </img></div>", "trial_id": "target", "time_elapsed": 153379, "internal_node_id": "0.0-63.0", "key_press": -1, "trial_index": 63}, {"rt": -1, "trial_type": "single-stim", "stimulus": "<div class = imageBox><img class = image src = img/Pmask1.jpg </img></div>", "trial_id": "mask", "time_elapsed": 154792, "internal_node_id": "0.0-64.0", "key_press": -1, "trial_index": 64}, {"rt": -1, "trial_type": "single-stim", "stimulus": "<div class = imageBox><img class = image src = img/line_images/8_al_02_01.png </img></div>", "trial_id": "probe", "time_elapsed": 156028, "internal_node_id": "0.0-65.0", "key_press": -1, "trial_index": 65}, {"rt": 509, "trial_type": "single-stim", "stimulus": "<div class = centerbox style = text-align:center><p style = font-size:50px>Same or different? </p></div>", "trial_id": "response_line", "time_elapsed": 157545, "response": ["different"], "internal_node_id": "0.0-66.0", "key_press": 48, "trial_index": 66, "congruency": ["incongruent"], "correct": true, "alignment": ["aligned"]}, {"rt": -1, "trial_type": "single-stim", "stimulus": "<div class = imageBox><img class = image src = img/line_images/20_target_01_01.png </img></div>", "trial_id": "target", "time_elapsed": 158822, "internal_node_id": "0.0-67.0", "key_press": -1, "trial_index": 67}, {"rt": -1, "trial_type": "single-stim", "stimulus": "<div class = imageBox><img class = image src = img/Pmask3.jpg </img></div>", "trial_id": "mask", "time_elapsed": 160272, "internal_node_id": "0.0-68.0", "key_press": -1, "trial_index": 68}, {"rt": -1, "trial_type": "single-stim", "stimulus": "<div class = imageBox><img class = image src = img/line_images/20_al_01_01.png </img></div>", "trial_id": "probe", "time_elapsed": 161515, "internal_node_id": "0.0-69.0", "key_press": -1, "trial_index": 69}, {"rt": 641, "trial_type": "single-stim", "stimulus": "<div class = centerbox style = text-align:center><p style = font-size:50px>Same or different? </p></div>", "trial_id": "response_line", "time_elapsed": 163212, "response": ["same"], "internal_node_id": "0.0-70.0", "key_press": 49, "trial_index": 70, "congruency": ["congruent"], "correct": true, "alignment": ["aligned"]}, {"rt": -1, "trial_type": "single-stim", "stimulus": "<div class = imageBox><img class = image src = img/line_images/2_target_01_01.png </img></div>", "trial_id": "target", "time_elapsed": 164436, "internal_node_id": "0.0-71.0", "key_press": -1, "trial_index": 71}, {"rt": -1, "trial_type": "single-stim", "stimulus": "<div class = imageBox><img class = image src = img/Pmask1.jpg </img></div>", "trial_id": "mask", "time_elapsed": 165871, "internal_node_id": "0.0-72.0", "key_press": -1, "trial_index": 72}, {"rt": -1, "trial_type": "single-stim", "stimulus": "<div class = imageBox><img class = image src = img/line_images/2_mis_01_01.png </img></div>", "trial_id": "probe", "time_elapsed": 167132, "internal_node_id": "0.0-73.0", "key_press": -1, "trial_index": 73}, {"rt": 66, "trial_type": "single-stim", "stimulus": "<div class = centerbox style = text-align:center><p style = font-size:50px>Same or different? </p></div>", "trial_id": "response_line", "time_elapsed": 168205, "response": ["same"], "internal_node_id": "0.0-74.0", "key_press": 49, "trial_index": 74, "congruency": ["congruent"], "correct": true, "alignment": ["misaligned"]}, {"rt": -1, "trial_type": "single-stim", "stimulus": "<div class = imageBox><img class = image src = img/line_images/15_target_01_01.png </img></div>", "trial_id": "target", "time_elapsed": 169472, "internal_node_id": "0.0-75.0", "key_press": -1, "trial_index": 75}, {"rt": -1, "trial_type": "single-stim", "stimulus": "<div class = imageBox><img class = image src = img/Pmask1.jpg </img></div>", "trial_id": "mask", "time_elapsed": 170943, "internal_node_id": "0.0-76.0", "key_press": -1, "trial_index": 76}, {"rt": -1, "trial_type": "single-stim", "stimulus": "<div class = imageBox><img class = image src = img/line_images/15_al_01_02.png </img></div>", "trial_id": "probe", "time_elapsed": 172164, "internal_node_id": "0.0-77.0", "key_press": -1, "trial_index": 77}, {"rt": 348, "trial_type": "single-stim", "stimulus": "<div class = centerbox style = text-align:center><p style = font-size:50px>Same or different? </p></div>", "trial_id": "response_line", "time_elapsed": 173533, "response": ["same"], "internal_node_id": "0.0-78.0", "key_press": 48, "trial_index": 78, "congruency": ["incongruent"], "correct": false, "alignment": ["aligned"]}, {"rt": -1, "trial_type": "single-stim", "stimulus": "<div class = imageBox><img class = image src = img/line_images/1_target_01_01.png </img></div>", "trial_id": "target", "time_elapsed": 174789, "internal_node_id": "0.0-79.0", "key_press": -1, "trial_index": 79}, {"rt": -1, "trial_type": "single-stim", "stimulus": "<div class = imageBox><img class = image src = img/Pmask2.jpg </img></div>", "trial_id": "mask", "time_elapsed": 176216, "internal_node_id": "0.0-80.0", "key_press": -1, "trial_index": 80}, {"rt": -1, "trial_type": "single-stim", "stimulus": "<div class = imageBox><img class = image src = img/line_images/1_mis_01_02.png </img></div>", "trial_id": "probe", "time_elapsed": 177429, "internal_node_id": "0.0-81.0", "key_press": -1, "trial_index": 81}, {"rt": 44, "trial_type": "single-stim", "stimulus": "<div class = centerbox style = text-align:center><p style = font-size:50px>Same or different? </p></div>", "trial_id": "response_line", "time_elapsed": 178491, "response": ["same"], "internal_node_id": "0.0-82.0", "key_press": 49, "trial_index": 82, "congruency": ["incongruent"], "correct": true, "alignment": ["misaligned"]}, {"rt": -1, "trial_type": "single-stim", "stimulus": "<div class = imageBox><img class = image src = img/line_images/3_target_01_01.png </img></div>", "trial_id": "target", "time_elapsed": 179732, "internal_node_id": "0.0-83.0", "key_press": -1, "trial_index": 83}, {"rt": -1, "trial_type": "single-stim", "stimulus": "<div class = imageBox><img class = image src = img/Pmask2.jpg </img></div>", "trial_id": "mask", "time_elapsed": 181152, "internal_node_id": "0.0-84.0", "key_press": -1, "trial_index": 84}, {"rt": -1, "trial_type": "single-stim", "stimulus": "<div class = imageBox><img class = image src = img/line_images/3_mis_02_01.png </img></div>", "trial_id": "probe", "time_elapsed": 182430, "internal_node_id": "0.0-85.0", "key_press": -1, "trial_index": 85}, {"rt": 834, "trial_type": "single-stim", "stimulus": "<div class = centerbox style = text-align:center><p style = font-size:50px>Same or different? </p></div>", "trial_id": "response_line", "time_elapsed": 184288, "response": ["different"], "internal_node_id": "0.0-86.0", "key_press": 49, "trial_index": 86, "congruency": ["incongruent"], "correct": false, "alignment": ["misaligned"]}, {"rt": -1, "trial_type": "single-stim", "stimulus": "<div class = imageBox><img class = image src = img/line_images/20_target_01_01.png </img></div>", "trial_id": "target", "time_elapsed": 185529, "internal_node_id": "0.0-87.0", "key_press": -1, "trial_index": 87}, {"rt": -1, "trial_type": "single-stim", "stimulus": "<div class = imageBox><img class = image src = img/Pmask1.jpg </img></div>", "trial_id": "mask", "time_elapsed": 186983, "internal_node_id": "0.0-88.0", "key_press": -1, "trial_index": 88}, {"rt": -1, "trial_type": "single-stim", "stimulus": "<div class = imageBox><img class = image src = img/line_images/20_mis_01_02.png </img></div>", "trial_id": "probe", "time_elapsed": 188244, "internal_node_id": "0.0-89.0", "key_press": -1, "trial_index": 89}, {"rt": 465, "trial_type": "single-stim", "stimulus": "<div class = centerbox style = text-align:center><p style = font-size:50px>Same or different? </p></div>", "trial_id": "response_line", "time_elapsed": 189721, "response": ["same"], "internal_node_id": "0.0-90.0", "key_press": 49, "trial_index": 90, "congruency": ["incongruent"], "correct": true, "alignment": ["misaligned"]}, {"rt": -1, "trial_type": "single-stim", "stimulus": "<div class = imageBox><img class = image src = img/line_images/15_target_01_01.png </img></div>", "trial_id": "target", "time_elapsed": 191009, "internal_node_id": "0.0-91.0", "key_press": -1, "trial_index": 91}, {"rt": -1, "trial_type": "single-stim", "stimulus": "<div class = imageBox><img class = image src = img/Pmask5.jpg </img></div>", "trial_id": "mask", "time_elapsed": 192445, "internal_node_id": "0.0-92.0", "key_press": -1, "trial_index": 92}, {"rt": -1, "trial_type": "single-stim", "stimulus": "<div class = imageBox><img class = image src = img/line_images/15_mis_01_01.png </img></div>", "trial_id": "probe", "time_elapsed": 193673, "internal_node_id": "0.0-93.0", "key_press": -1, "trial_index": 93}, {"rt": 642, "trial_type": "single-stim", "stimulus": "<div class = centerbox style = text-align:center><p style = font-size:50px>Same or different? </p></div>", "trial_id": "response_line", "time_elapsed": 195320, "response": ["same"], "internal_node_id": "0.0-94.0", "key_press": 49, "trial_index": 94, "congruency": ["congruent"], "correct": true, "alignment": ["misaligned"]}, {"rt": -1, "trial_type": "single-stim", "stimulus": "<div class = imageBox><img class = image src = img/line_images/11_target_01_01.png </img></div>", "trial_id": "target", "time_elapsed": 196551, "internal_node_id": "0.0-95.0", "key_press": -1, "trial_index": 95}, {"rt": -1, "trial_type": "single-stim", "stimulus": "<div class = imageBox><img class = image src = img/Pmask5.jpg </img></div>", "trial_id": "mask", "time_elapsed": 198007, "internal_node_id": "0.0-96.0", "key_press": -1, "trial_index": 96}, {"rt": -1, "trial_type": "single-stim", "stimulus": "<div class = imageBox><img class = image src = img/line_images/11_mis_02_02.png </img></div>", "trial_id": "probe", "time_elapsed": 199267, "internal_node_id": "0.0-97.0", "key_press": -1, "trial_index": 97}, {"rt": 527, "trial_type": "single-stim", "stimulus": "<div class = centerbox style = text-align:center><p style = font-size:50px>Same or different? </p></div>", "trial_id": "response_line", "time_elapsed": 200842, "response": ["different"], "internal_node_id": "0.0-98.0", "key_press": 48, "trial_index": 98, "congruency": ["congruent"], "correct": true, "alignment": ["misaligned"]}, {"rt": -1, "trial_type": "single-stim", "stimulus": "<div class = imageBox><img class = image src = img/line_images/9_target_01_01.png </img></div>", "trial_id": "target", "time_elapsed": 202092, "internal_node_id": "0.0-99.0", "key_press": -1, "trial_index": 99}, {"rt": -1, "trial_type": "single-stim", "stimulus": "<div class = imageBox><img class = image src = img/Pmask1.jpg </img></div>", "trial_id": "mask", "time_elapsed": 203535, "internal_node_id": "0.0-100.0", "key_press": -1, "trial_index": 100}, {"rt": -1, "trial_type": "single-stim", "stimulus": "<div class = imageBox><img class = image src = img/line_images/9_mis_02_02.png </img></div>", "trial_id": "probe", "time_elapsed": 204777, "internal_node_id": "0.0-101.0", "key_press": -1, "trial_index": 101}, {"rt": 200, "trial_type": "single-stim", "stimulus": "<div class = centerbox style = text-align:center><p style = font-size:50px>Same or different? </p></div>", "trial_id": "response_line", "time_elapsed": 206001, "response": ["different"], "internal_node_id": "0.0-102.0", "key_press": 48, "trial_index": 102, "congruency": ["congruent"], "correct": true, "alignment": ["misaligned"]}, {"rt": -1, "trial_type": "single-stim", "stimulus": "<div class = imageBox><img class = image src = img/line_images/13_target_01_01.png </img></div>", "trial_id": "target", "time_elapsed": 207227, "internal_node_id": "0.0-103.0", "key_press": -1, "trial_index": 103}, {"rt": -1, "trial_type": "single-stim", "stimulus": "<div class = imageBox><img class = image src = img/Pmask2.jpg </img></div>", "trial_id": "mask", "time_elapsed": 208684, "internal_node_id": "0.0-104.0", "key_press": -1, "trial_index": 104}, {"rt": -1, "trial_type": "single-stim", "stimulus": "<div class = imageBox><img class = image src = img/line_images/13_mis_02_01.png </img></div>", "trial_id": "probe", "time_elapsed": 209939, "internal_node_id": "0.0-105.0", "key_press": -1, "trial_index": 105}, {"rt": 509, "trial_type": "single-stim", "stimulus": "<div class = centerbox style = text-align:center><p style = font-size:50px>Same or different? </p></div>", "trial_id": "response_line", "time_elapsed": 211481, "response": ["different"], "internal_node_id": "0.0-106.0", "key_press": 48, "trial_index": 106, "congruency": ["incongruent"], "correct": true, "alignment": ["misaligned"]}, {"rt": -1, "trial_type": "single-stim", "stimulus": "<div class = imageBox><img class = image src = img/line_images/17_target_01_01.png </img></div>", "trial_id": "target", "time_elapsed": 212706, "internal_node_id": "0.0-107.0", "key_press": -1, "trial_index": 107}, {"rt": -1, "trial_type": "single-stim", "stimulus": "<div class = imageBox><img class = image src = img/Pmask5.jpg </img></div>", "trial_id": "mask", "time_elapsed": 214138, "internal_node_id": "0.0-108.0", "key_press": -1, "trial_index": 108}, {"rt": -1, "trial_type": "single-stim", "stimulus": "<div class = imageBox><img class = image src = img/line_images/17_mis_01_01.png </img></div>", "trial_id": "probe", "time_elapsed": 215351, "internal_node_id": "0.0-109.0", "key_press": -1, "trial_index": 109}, {"rt": 23, "trial_type": "single-stim", "stimulus": "<div class = centerbox style = text-align:center><p style = font-size:50px>Same or different? </p></div>", "trial_id": "response_line", "time_elapsed": 216382, "response": ["same"], "internal_node_id": "0.0-110.0", "key_press": 49, "trial_index": 110, "congruency": ["congruent"], "correct": true, "alignment": ["misaligned"]}, {"rt": -1, "trial_type": "single-stim", "stimulus": "<div class = imageBox><img class = image src = img/line_images/17_target_01_01.png </img></div>", "trial_id": "target", "time_elapsed": 217620, "internal_node_id": "0.0-111.0", "key_press": -1, "trial_index": 111}, {"rt": -1, "trial_type": "single-stim", "stimulus": "<div class = imageBox><img class = image src = img/Pmask3.jpg </img></div>", "trial_id": "mask", "time_elapsed": 219078, "internal_node_id": "0.0-112.0", "key_press": -1, "trial_index": 112}, {"rt": -1, "trial_type": "single-stim", "stimulus": "<div class = imageBox><img class = image src = img/line_images/17_mis_01_02.png </img></div>", "trial_id": "probe", "time_elapsed": 220300, "internal_node_id": "0.0-113.0", "key_press": -1, "trial_index": 113}, {"rt": 556, "trial_type": "single-stim", "stimulus": "<div class = centerbox style = text-align:center><p style = font-size:50px>Same or different? </p></div>", "trial_id": "response_line", "time_elapsed": 221871, "response": ["same"], "internal_node_id": "0.0-114.0", "key_press": 49, "trial_index": 114, "congruency": ["incongruent"], "correct": true, "alignment": ["misaligned"]}, {"rt": -1, "trial_type": "single-stim", "stimulus": "<div class = imageBox><img class = image src = img/line_images/6_target_01_01.png </img></div>", "trial_id": "target", "time_elapsed": 223148, "internal_node_id": "0.0-115.0", "key_press": -1, "trial_index": 115}, {"rt": -1, "trial_type": "single-stim", "stimulus": "<div class = imageBox><img class = image src = img/Pmask3.jpg </img></div>", "trial_id": "mask", "time_elapsed": 224592, "internal_node_id": "0.0-116.0", "key_press": -1, "trial_index": 116}, {"rt": -1, "trial_type": "single-stim", "stimulus": "<div class = imageBox><img class = image src = img/line_images/6_mis_01_02.png </img></div>", "trial_id": "probe", "time_elapsed": 225859, "internal_node_id": "0.0-117.0", "key_press": -1, "trial_index": 117}, {"rt": 541, "trial_type": "single-stim", "stimulus": "<div class = centerbox style = text-align:center><p style = font-size:50px>Same or different? </p></div>", "trial_id": "response_line", "time_elapsed": 227417, "response": ["same"], "internal_node_id": "0.0-118.0", "key_press": 49, "trial_index": 118, "congruency": ["incongruent"], "correct": true, "alignment": ["misaligned"]}, {"rt": -1, "trial_type": "single-stim", "stimulus": "<div class = imageBox><img class = image src = img/line_images/12_target_01_01.png </img></div>", "trial_id": "target", "time_elapsed": 228635, "internal_node_id": "0.0-119.0", "key_press": -1, "trial_index": 119}, {"rt": -1, "trial_type": "single-stim", "stimulus": "<div class = imageBox><img class = image src = img/Pmask3.jpg </img></div>", "trial_id": "mask", "time_elapsed": 230102, "internal_node_id": "0.0-120.0", "key_press": -1, "trial_index": 120}, {"rt": -1, "trial_type": "single-stim", "stimulus": "<div class = imageBox><img class = image src = img/line_images/12_al_02_01.png </img></div>", "trial_id": "probe", "time_elapsed": 231429, "internal_node_id": "0.0-121.0", "key_press": -1, "trial_index": 121}, {"rt": 404, "trial_type": "single-stim", "stimulus": "<div class = centerbox style = text-align:center><p style = font-size:50px>Same or different? </p></div>", "trial_id": "response_line", "time_elapsed": 232838, "response": ["different"], "internal_node_id": "0.0-122.0", "key_press": 49, "trial_index": 122, "congruency": ["incongruent"], "correct": false, "alignment": ["aligned"]}, {"rt": -1, "trial_type": "single-stim", "stimulus": "<div class = imageBox><img class = image src = img/line_images/18_target_01_01.png </img></div>", "trial_id": "target", "time_elapsed": 234072, "internal_node_id": "0.0-123.0", "key_press": -1, "trial_index": 123}, {"rt": -1, "trial_type": "single-stim", "stimulus": "<div class = imageBox><img class = image src = img/Pmask1.jpg </img></div>", "trial_id": "mask", "time_elapsed": 235503, "internal_node_id": "0.0-124.0", "key_press": -1, "trial_index": 124}, {"rt": -1, "trial_type": "single-stim", "stimulus": "<div class = imageBox><img class = image src = img/line_images/18_al_02_01.png </img></div>", "trial_id": "probe", "time_elapsed": 236755, "internal_node_id": "0.0-125.0", "key_press": -1, "trial_index": 125}, {"rt": 659, "trial_type": "single-stim", "stimulus": "<div class = centerbox style = text-align:center><p style = font-size:50px>Same or different? </p></div>", "trial_id": "response_line", "time_elapsed": 238436, "response": ["different"], "internal_node_id": "0.0-126.0", "key_press": 48, "trial_index": 126, "congruency": ["incongruent"], "correct": true, "alignment": ["aligned"]}, {"rt": -1, "trial_type": "single-stim", "stimulus": "<div class = imageBox><img class = image src = img/line_images/4_target_01_01.png </img></div>", "trial_id": "target", "time_elapsed": 239746, "internal_node_id": "0.0-127.0", "key_press": -1, "trial_index": 127}, {"rt": -1, "trial_type": "single-stim", "stimulus": "<div class = imageBox><img class = image src = img/Pmask3.jpg </img></div>", "trial_id": "mask", "time_elapsed": 241205, "internal_node_id": "0.0-128.0", "key_press": -1, "trial_index": 128}, {"rt": -1, "trial_type": "single-stim", "stimulus": "<div class = imageBox><img class = image src = img/line_images/4_mis_01_02.png </img></div>", "trial_id": "probe", "time_elapsed": 242433, "internal_node_id": "0.0-129.0", "key_press": -1, "trial_index": 129}, {"rt": 926, "trial_type": "single-stim", "stimulus": "<div class = centerbox style = text-align:center><p style = font-size:50px>Same or different? </p></div>", "trial_id": "response_line", "time_elapsed": 244384, "response": ["same"], "internal_node_id": "0.0-130.0", "key_press": 49, "trial_index": 130, "congruency": ["incongruent"], "correct": true, "alignment": ["misaligned"]}, {"rt": -1, "trial_type": "single-stim", "stimulus": "<div class = imageBox><img class = image src = img/line_images/16_target_01_01.png </img></div>", "trial_id": "target", "time_elapsed": 245637, "internal_node_id": "0.0-131.0", "key_press": -1, "trial_index": 131}, {"rt": -1, "trial_type": "single-stim", "stimulus": "<div class = imageBox><img class = image src = img/Pmask3.jpg </img></div>", "trial_id": "mask", "time_elapsed": 247054, "internal_node_id": "0.0-132.0", "key_press": -1, "trial_index": 132}, {"rt": -1, "trial_type": "single-stim", "stimulus": "<div class = imageBox><img class = image src = img/line_images/16_al_01_02.png </img></div>", "trial_id": "probe", "time_elapsed": 248279, "internal_node_id": "0.0-133.0", "key_press": -1, "trial_index": 133}, {"rt": 345, "trial_type": "single-stim", "stimulus": "<div class = centerbox style = text-align:center><p style = font-size:50px>Same or different? </p></div>", "trial_id": "response_line", "time_elapsed": 249639, "response": ["same"], "internal_node_id": "0.0-134.0", "key_press": 49, "trial_index": 134, "congruency": ["incongruent"], "correct": true, "alignment": ["aligned"]}, {"rt": -1, "trial_type": "single-stim", "stimulus": "<div class = imageBox><img class = image src = img/line_images/7_target_01_01.png </img></div>", "trial_id": "target", "time_elapsed": 250872, "internal_node_id": "0.0-135.0", "key_press": -1, "trial_index": 135}, {"rt": -1, "trial_type": "single-stim", "stimulus": "<div class = imageBox><img class = image src = img/Pmask2.jpg </img></div>", "trial_id": "mask", "time_elapsed": 252295, "internal_node_id": "0.0-136.0", "key_press": -1, "trial_index": 136}, {"rt": -1, "trial_type": "single-stim", "stimulus": "<div class = imageBox><img class = image src = img/line_images/7_mis_02_02.png </img></div>", "trial_id": "probe", "time_elapsed": 253527, "internal_node_id": "0.0-137.0", "key_press": -1, "trial_index": 137}, {"rt": 509, "trial_type": "single-stim", "stimulus": "<div class = centerbox style = text-align:center><p style = font-size:50px>Same or different? </p></div>", "trial_id": "response_line", "time_elapsed": 255056, "response": ["different"], "internal_node_id": "0.0-138.0", "key_press": 48, "trial_index": 138, "congruency": ["congruent"], "correct": true, "alignment": ["misaligned"]}, {"rt": -1, "trial_type": "single-stim", "stimulus": "<div class = imageBox><img class = image src = img/line_images/6_target_01_01.png </img></div>", "trial_id": "target", "time_elapsed": 256353, "internal_node_id": "0.0-139.0", "key_press": -1, "trial_index": 139}, {"rt": -1, "trial_type": "single-stim", "stimulus": "<div class = imageBox><img class = image src = img/Pmask5.jpg </img></div>", "trial_id": "mask", "time_elapsed": 257852, "internal_node_id": "0.0-140.0", "key_press": -1, "trial_index": 140}, {"rt": -1, "trial_type": "single-stim", "stimulus": "<div class = imageBox><img class = image src = img/line_images/6_al_02_02.png </img></div>", "trial_id": "probe", "time_elapsed": 259066, "internal_node_id": "0.0-141.0", "key_press": -1, "trial_index": 141}, {"rt": 482, "trial_type": "single-stim", "stimulus": "<div class = centerbox style = text-align:center><p style = font-size:50px>Same or different? </p></div>", "trial_id": "response_line", "time_elapsed": 260576, "response": ["different"], "internal_node_id": "0.0-142.0", "key_press": 48, "trial_index": 142, "congruency": ["congruent"], "correct": true, "alignment": ["aligned"]}, {"rt": -1, "trial_type": "single-stim", "stimulus": "<div class = imageBox><img class = image src = img/line_images/15_target_01_01.png </img></div>", "trial_id": "target", "time_elapsed": 261809, "internal_node_id": "0.0-143.0", "key_press": -1, "trial_index": 143}, {"rt": -1, "trial_type": "single-stim", "stimulus": "<div class = imageBox><img class = image src = img/Pmask4.jpg </img></div>", "trial_id": "mask", "time_elapsed": 263251, "internal_node_id": "0.0-144.0", "key_press": -1, "trial_index": 144}, {"rt": -1, "trial_type": "single-stim", "stimulus": "<div class = imageBox><img class = image src = img/line_images/15_mis_02_02.png </img></div>", "trial_id": "probe", "time_elapsed": 264480, "internal_node_id": "0.0-145.0", "key_press": -1, "trial_index": 145}, {"rt": 366, "trial_type": "single-stim", "stimulus": "<div class = centerbox style = text-align:center><p style = font-size:50px>Same or different? </p></div>", "trial_id": "response_line", "time_elapsed": 265904, "response": ["different"], "internal_node_id": "0.0-146.0", "key_press": 48, "trial_index": 146, "congruency": ["congruent"], "correct": true, "alignment": ["misaligned"]}, {"rt": -1, "trial_type": "single-stim", "stimulus": "<div class = imageBox><img class = image src = img/line_images/8_target_01_01.png </img></div>", "trial_id": "target", "time_elapsed": 267147, "internal_node_id": "0.0-147.0", "key_press": -1, "trial_index": 147}, {"rt": -1, "trial_type": "single-stim", "stimulus": "<div class = imageBox><img class = image src = img/Pmask3.jpg </img></div>", "trial_id": "mask", "time_elapsed": 268631, "internal_node_id": "0.0-148.0", "key_press": -1, "trial_index": 148}, {"rt": -1, "trial_type": "single-stim", "stimulus": "<div class = imageBox><img class = image src = img/line_images/8_al_01_01.png </img></div>", "trial_id": "probe", "time_elapsed": 269909, "internal_node_id": "0.0-149.0", "key_press": -1, "trial_index": 149}, {"rt": 539, "trial_type": "single-stim", "stimulus": "<div class = centerbox style = text-align:center><p style = font-size:50px>Same or different? </p></div>", "trial_id": "response_line", "time_elapsed": 271452, "response": ["same"], "internal_node_id": "0.0-150.0", "key_press": 49, "trial_index": 150, "congruency": ["congruent"], "correct": true, "alignment": ["aligned"]}, {"rt": -1, "trial_type": "single-stim", "stimulus": "<div class = imageBox><img class = image src = img/line_images/7_target_01_01.png </img></div>", "trial_id": "target", "time_elapsed": 272695, "internal_node_id": "0.0-151.0", "key_press": -1, "trial_index": 151}, {"rt": -1, "trial_type": "single-stim", "stimulus": "<div class = imageBox><img class = image src = img/Pmask3.jpg </img></div>", "trial_id": "mask", "time_elapsed": 274154, "internal_node_id": "0.0-152.0", "key_press": -1, "trial_index": 152}, {"rt": -1, "trial_type": "single-stim", "stimulus": "<div class = imageBox><img class = image src = img/line_images/7_mis_01_01.png </img></div>", "trial_id": "probe", "time_elapsed": 275360, "internal_node_id": "0.0-153.0", "key_press": -1, "trial_index": 153}, {"rt": 79, "trial_type": "single-stim", "stimulus": "<div class = centerbox style = text-align:center><p style = font-size:50px>Same or different? </p></div>", "trial_id": "response_line", "time_elapsed": 276447, "response": ["same"], "internal_node_id": "0.0-154.0", "key_press": 49, "trial_index": 154, "congruency": ["congruent"], "correct": true, "alignment": ["misaligned"]}, {"rt": -1, "trial_type": "single-stim", "stimulus": "<div class = imageBox><img class = image src = img/line_images/20_target_01_01.png </img></div>", "trial_id": "target", "time_elapsed": 277683, "internal_node_id": "0.0-155.0", "key_press": -1, "trial_index": 155}, {"rt": -1, "trial_type": "single-stim", "stimulus": "<div class = imageBox><img class = image src = img/Pmask3.jpg </img></div>", "trial_id": "mask", "time_elapsed": 279122, "internal_node_id": "0.0-156.0", "key_press": -1, "trial_index": 156}, {"rt": -1, "trial_type": "single-stim", "stimulus": "<div class = imageBox><img class = image src = img/line_images/20_al_02_01.png </img></div>", "trial_id": "probe", "time_elapsed": 280363, "internal_node_id": "0.0-157.0", "key_press": -1, "trial_index": 157}, {"rt": 43, "trial_type": "single-stim", "stimulus": "<div class = centerbox style = text-align:center><p style = font-size:50px>Same or different? </p></div>", "trial_id": "response_line", "time_elapsed": 281430, "response": ["different"], "internal_node_id": "0.0-158.0", "key_press": 48, "trial_index": 158, "congruency": ["incongruent"], "correct": true, "alignment": ["aligned"]}, {"rt": -1, "trial_type": "single-stim", "stimulus": "<div class = imageBox><img class = image src = img/line_images/9_target_01_01.png </img></div>", "trial_id": "target", "time_elapsed": 282669, "internal_node_id": "0.0-159.0", "key_press": -1, "trial_index": 159}, {"rt": -1, "trial_type": "single-stim", "stimulus": "<div class = imageBox><img class = image src = img/Pmask5.jpg </img></div>", "trial_id": "mask", "time_elapsed": 284110, "internal_node_id": "0.0-160.0", "key_press": -1, "trial_index": 160}, {"rt": -1, "trial_type": "single-stim", "stimulus": "<div class = imageBox><img class = image src = img/line_images/9_mis_01_02.png </img></div>", "trial_id": "probe", "time_elapsed": 285378, "internal_node_id": "0.0-161.0", "key_press": -1, "trial_index": 161}, {"rt": 112, "trial_type": "single-stim", "stimulus": "<div class = centerbox style = text-align:center><p style = font-size:50px>Same or different? </p></div>", "trial_id": "response_line", "time_elapsed": 286503, "response": ["same"], "internal_node_id": "0.0-162.0", "key_press": 48, "trial_index": 162, "congruency": ["incongruent"], "correct": false, "alignment": ["misaligned"]}, {"rt": -1, "trial_type": "single-stim", "stimulus": "<div class = imageBox><img class = image src = img/line_images/18_target_01_01.png </img></div>", "trial_id": "target", "time_elapsed": 287738, "internal_node_id": "0.0-163.0", "key_press": -1, "trial_index": 163}, {"rt": -1, "trial_type": "single-stim", "stimulus": "<div class = imageBox><img class = image src = img/Pmask2.jpg </img></div>", "trial_id": "mask", "time_elapsed": 289190, "internal_node_id": "0.0-164.0", "key_press": -1, "trial_index": 164}, {"rt": -1, "trial_type": "single-stim", "stimulus": "<div class = imageBox><img class = image src = img/line_images/18_al_02_02.png </img></div>", "trial_id": "probe", "time_elapsed": 290417, "internal_node_id": "0.0-165.0", "key_press": -1, "trial_index": 165}, {"rt": 425, "trial_type": "single-stim", "stimulus": "<div class = centerbox style = text-align:center><p style = font-size:50px>Same or different? </p></div>", "trial_id": "response_line", "time_elapsed": 291857, "response": ["different"], "internal_node_id": "0.0-166.0", "key_press": 48, "trial_index": 166, "congruency": ["congruent"], "correct": true, "alignment": ["aligned"]}, {"rt": -1, "trial_type": "single-stim", "stimulus": "<div class = imageBox><img class = image src = img/line_images/16_target_01_01.png </img></div>", "trial_id": "target", "time_elapsed": 293084, "internal_node_id": "0.0-167.0", "key_press": -1, "trial_index": 167}, {"rt": -1, "trial_type": "single-stim", "stimulus": "<div class = imageBox><img class = image src = img/Pmask3.jpg </img></div>", "trial_id": "mask", "time_elapsed": 294537, "internal_node_id": "0.0-168.0", "key_press": -1, "trial_index": 168}, {"rt": -1, "trial_type": "single-stim", "stimulus": "<div class = imageBox><img class = image src = img/line_images/16_mis_01_02.png </img></div>", "trial_id": "probe", "time_elapsed": 295786, "internal_node_id": "0.0-169.0", "key_press": -1, "trial_index": 169}, {"rt": 823, "trial_type": "single-stim", "stimulus": "<div class = centerbox style = text-align:center><p style = font-size:50px>Same or different? </p></div>", "trial_id": "response_line", "time_elapsed": 297633, "response": ["same"], "internal_node_id": "0.0-170.0", "key_press": 49, "trial_index": 170, "congruency": ["incongruent"], "correct": true, "alignment": ["misaligned"]}, {"rt": -1, "trial_type": "single-stim", "stimulus": "<div class = imageBox><img class = image src = img/line_images/3_target_01_01.png </img></div>", "trial_id": "target", "time_elapsed": 298878, "internal_node_id": "0.0-171.0", "key_press": -1, "trial_index": 171}, {"rt": -1, "trial_type": "single-stim", "stimulus": "<div class = imageBox><img class = image src = img/Pmask4.jpg </img></div>", "trial_id": "mask", "time_elapsed": 300330, "internal_node_id": "0.0-172.0", "key_press": -1, "trial_index": 172}, {"rt": -1, "trial_type": "single-stim", "stimulus": "<div class = imageBox><img class = image src = img/line_images/3_mis_01_02.png </img></div>", "trial_id": "probe", "time_elapsed": 301560, "internal_node_id": "0.0-173.0", "key_press": -1, "trial_index": 173}, {"rt": 420, "trial_type": "single-stim", "stimulus": "<div class = centerbox style = text-align:center><p style = font-size:50px>Same or different? </p></div>", "trial_id": "response_line", "time_elapsed": 303018, "response": ["same"], "internal_node_id": "0.0-174.0", "key_press": 48, "trial_index": 174, "congruency": ["incongruent"], "correct": false, "alignment": ["misaligned"]}, {"rt": -1, "trial_type": "single-stim", "stimulus": "<div class = imageBox><img class = image src = img/line_images/19_target_01_01.png </img></div>", "trial_id": "target", "time_elapsed": 304246, "internal_node_id": "0.0-175.0", "key_press": -1, "trial_index": 175}, {"rt": -1, "trial_type": "single-stim", "stimulus": "<div class = imageBox><img class = image src = img/Pmask5.jpg </img></div>", "trial_id": "mask", "time_elapsed": 305696, "internal_node_id": "0.0-176.0", "key_press": -1, "trial_index": 176}, {"rt": -1, "trial_type": "single-stim", "stimulus": "<div class = imageBox><img class = image src = img/line_images/19_mis_02_01.png </img></div>", "trial_id": "probe", "time_elapsed": 306937, "internal_node_id": "0.0-177.0", "key_press": -1, "trial_index": 177}, {"rt": 720, "trial_type": "single-stim", "stimulus": "<div class = centerbox style = text-align:center><p style = font-size:50px>Same or different? </p></div>", "trial_id": "response_line", "time_elapsed": 308683, "response": ["different"], "internal_node_id": "0.0-178.0", "key_press": 49, "trial_index": 178, "congruency": ["incongruent"], "correct": false, "alignment": ["misaligned"]}, {"rt": -1, "trial_type": "single-stim", "stimulus": "<div class = imageBox><img class = image src = img/line_images/19_target_01_01.png </img></div>", "trial_id": "target", "time_elapsed": 309911, "internal_node_id": "0.0-179.0", "key_press": -1, "trial_index": 179}, {"rt": -1, "trial_type": "single-stim", "stimulus": "<div class = imageBox><img class = image src = img/Pmask4.jpg </img></div>", "trial_id": "mask", "time_elapsed": 311393, "internal_node_id": "0.0-180.0", "key_press": -1, "trial_index": 180}, {"rt": -1, "trial_type": "single-stim", "stimulus": "<div class = imageBox><img class = image src = img/line_images/19_al_01_01.png </img></div>", "trial_id": "probe", "time_elapsed": 312673, "internal_node_id": "0.0-181.0", "key_press": -1, "trial_index": 181}, {"rt": 517, "trial_type": "single-stim", "stimulus": "<div class = centerbox style = text-align:center><p style = font-size:50px>Same or different? </p></div>", "trial_id": "response_line", "time_elapsed": 314217, "response": ["same"], "internal_node_id": "0.0-182.0", "key_press": 49, "trial_index": 182, "congruency": ["congruent"], "correct": true, "alignment": ["aligned"]}, {"rt": -1, "trial_type": "single-stim", "stimulus": "<div class = imageBox><img class = image src = img/line_images/17_target_01_01.png </img></div>", "trial_id": "target", "time_elapsed": 315432, "internal_node_id": "0.0-183.0", "key_press": -1, "trial_index": 183}, {"rt": -1, "trial_type": "single-stim", "stimulus": "<div class = imageBox><img class = image src = img/Pmask3.jpg </img></div>", "trial_id": "mask", "time_elapsed": 316849, "internal_node_id": "0.0-184.0", "key_press": -1, "trial_index": 184}, {"rt": -1, "trial_type": "single-stim", "stimulus": "<div class = imageBox><img class = image src = img/line_images/17_al_01_01.png </img></div>", "trial_id": "probe", "time_elapsed": 318125, "internal_node_id": "0.0-185.0", "key_press": -1, "trial_index": 185}, {"rt": 110, "trial_type": "single-stim", "stimulus": "<div class = centerbox style = text-align:center><p style = font-size:50px>Same or different? </p></div>", "trial_id": "response_line", "time_elapsed": 319253, "response": ["same"], "internal_node_id": "0.0-186.0", "key_press": 49, "trial_index": 186, "congruency": ["congruent"], "correct": true, "alignment": ["aligned"]}, {"rt": -1, "trial_type": "single-stim", "stimulus": "<div class = imageBox><img class = image src = img/line_images/7_target_01_01.png </img></div>", "trial_id": "target", "time_elapsed": 320483, "internal_node_id": "0.0-187.0", "key_press": -1, "trial_index": 187}, {"rt": -1, "trial_type": "single-stim", "stimulus": "<div class = imageBox><img class = image src = img/Pmask1.jpg </img></div>", "trial_id": "mask", "time_elapsed": 321922, "internal_node_id": "0.0-188.0", "key_press": -1, "trial_index": 188}, {"rt": -1, "trial_type": "single-stim", "stimulus": "<div class = imageBox><img class = image src = img/line_images/7_al_02_02.png </img></div>", "trial_id": "probe", "time_elapsed": 323165, "internal_node_id": "0.0-189.0", "key_press": -1, "trial_index": 189}, {"rt": 456, "trial_type": "single-stim", "stimulus": "<div class = centerbox style = text-align:center><p style = font-size:50px>Same or different? </p></div>", "trial_id": "response_line", "time_elapsed": 324625, "response": ["different"], "internal_node_id": "0.0-190.0", "key_press": 48, "trial_index": 190, "congruency": ["congruent"], "correct": true, "alignment": ["aligned"]}, {"rt": -1, "trial_type": "single-stim", "stimulus": "<div class = imageBox><img class = image src = img/line_images/10_target_01_01.png </img></div>", "trial_id": "target", "time_elapsed": 325850, "internal_node_id": "0.0-191.0", "key_press": -1, "trial_index": 191}, {"rt": -1, "trial_type": "single-stim", "stimulus": "<div class = imageBox><img class = image src = img/Pmask4.jpg </img></div>", "trial_id": "mask", "time_elapsed": 327258, "internal_node_id": "0.0-192.0", "key_press": -1, "trial_index": 192}, {"rt": -1, "trial_type": "single-stim", "stimulus": "<div class = imageBox><img class = image src = img/line_images/10_mis_02_01.png </img></div>", "trial_id": "probe", "time_elapsed": 328491, "internal_node_id": "0.0-193.0", "key_press": -1, "trial_index": 193}, {"rt": 447, "trial_type": "single-stim", "stimulus": "<div class = centerbox style = text-align:center><p style = font-size:50px>Same or different? </p></div>", "trial_id": "response_line", "time_elapsed": 329983, "response": ["different"], "internal_node_id": "0.0-194.0", "key_press": 48, "trial_index": 194, "congruency": ["incongruent"], "correct": true, "alignment": ["misaligned"]}, {"rt": -1, "trial_type": "single-stim", "stimulus": "<div class = imageBox><img class = image src = img/line_images/17_target_01_01.png </img></div>", "trial_id": "target", "time_elapsed": 331231, "internal_node_id": "0.0-195.0", "key_press": -1, "trial_index": 195}, {"rt": -1, "trial_type": "single-stim", "stimulus": "<div class = imageBox><img class = image src = img/Pmask5.jpg </img></div>", "trial_id": "mask", "time_elapsed": 332670, "internal_node_id": "0.0-196.0", "key_press": -1, "trial_index": 196}, {"rt": -1, "trial_type": "single-stim", "stimulus": "<div class = imageBox><img class = image src = img/line_images/17_al_02_02.png </img></div>", "trial_id": "probe", "time_elapsed": 333924, "internal_node_id": "0.0-197.0", "key_press": -1, "trial_index": 197}, {"rt": 0, "trial_type": "single-stim", "stimulus": "<div class = centerbox style = text-align:center><p style = font-size:50px>Same or different? </p></div>", "trial_id": "response_line", "time_elapsed": 334938, "response": ["different"], "internal_node_id": "0.0-198.0", "key_press": 48, "trial_index": 198, "congruency": ["congruent"], "correct": true, "alignment": ["aligned"]}, {"rt": -1, "trial_type": "single-stim", "stimulus": "<div class = imageBox><img class = image src = img/line_images/6_target_01_01.png </img></div>", "trial_id": "target", "time_elapsed": 336191, "internal_node_id": "0.0-199.0", "key_press": -1, "trial_index": 199}, {"rt": -1, "trial_type": "single-stim", "stimulus": "<div class = imageBox><img class = image src = img/Pmask2.jpg </img></div>", "trial_id": "mask", "time_elapsed": 337634, "internal_node_id": "0.0-200.0", "key_press": -1, "trial_index": 200}, {"rt": -1, "trial_type": "single-stim", "stimulus": "<div class = imageBox><img class = image src = img/line_images/6_al_01_02.png </img></div>", "trial_id": "probe", "time_elapsed": 338882, "internal_node_id": "0.0-201.0", "key_press": -1, "trial_index": 201}, {"rt": 213, "trial_type": "single-stim", "stimulus": "<div class = centerbox style = text-align:center><p style = font-size:50px>Same or different? </p></div>", "trial_id": "response_line", "time_elapsed": 340119, "response": ["same"], "internal_node_id": "0.0-202.0", "key_press": 49, "trial_index": 202, "congruency": ["incongruent"], "correct": true, "alignment": ["aligned"]}, {"rt": -1, "trial_type": "single-stim", "stimulus": "<div class = imageBox><img class = image src = img/line_images/20_target_01_01.png </img></div>", "trial_id": "target", "time_elapsed": 341361, "internal_node_id": "0.0-203.0", "key_press": -1, "trial_index": 203}, {"rt": -1, "trial_type": "single-stim", "stimulus": "<div class = imageBox><img class = image src = img/Pmask4.jpg </img></div>", "trial_id": "mask", "time_elapsed": 342786, "internal_node_id": "0.0-204.0", "key_press": -1, "trial_index": 204}, {"rt": -1, "trial_type": "single-stim", "stimulus": "<div class = imageBox><img class = image src = img/line_images/20_al_01_02.png </img></div>", "trial_id": "probe", "time_elapsed": 344008, "internal_node_id": "0.0-205.0", "key_press": -1, "trial_index": 205}, {"rt": 443, "trial_type": "single-stim", "stimulus": "<div class = centerbox style = text-align:center><p style = font-size:50px>Same or different? </p></div>", "trial_id": "response_line", "time_elapsed": 345468, "response": ["same"], "internal_node_id": "0.0-206.0", "key_press": 48, "trial_index": 206, "congruency": ["incongruent"], "correct": false, "alignment": ["aligned"]}, {"rt": -1, "trial_type": "single-stim", "stimulus": "<div class = imageBox><img class = image src = img/line_images/18_target_01_01.png </img></div>", "trial_id": "target", "time_elapsed": 346739, "internal_node_id": "0.0-207.0", "key_press": -1, "trial_index": 207}, {"rt": -1, "trial_type": "single-stim", "stimulus": "<div class = imageBox><img class = image src = img/Pmask1.jpg </img></div>", "trial_id": "mask", "time_elapsed": 348153, "internal_node_id": "0.0-208.0", "key_press": -1, "trial_index": 208}, {"rt": -1, "trial_type": "single-stim", "stimulus": "<div class = imageBox><img class = image src = img/line_images/18_mis_02_02.png </img></div>", "trial_id": "probe", "time_elapsed": 349398, "internal_node_id": "0.0-209.0", "key_press": -1, "trial_index": 209}, {"rt": 937, "trial_type": "single-stim", "stimulus": "<div class = centerbox style = text-align:center><p style = font-size:50px>Same or different? </p></div>", "trial_id": "response_line", "time_elapsed": 351341, "response": ["different"], "internal_node_id": "0.0-210.0", "key_press": 48, "trial_index": 210, "congruency": ["congruent"], "correct": true, "alignment": ["misaligned"]}, {"rt": -1, "trial_type": "single-stim", "stimulus": "<div class = imageBox><img class = image src = img/line_images/2_target_01_01.png </img></div>", "trial_id": "target", "time_elapsed": 352553, "internal_node_id": "0.0-211.0", "key_press": -1, "trial_index": 211}, {"rt": -1, "trial_type": "single-stim", "stimulus": "<div class = imageBox><img class = image src = img/Pmask3.jpg </img></div>", "trial_id": "mask", "time_elapsed": 353976, "internal_node_id": "0.0-212.0", "key_press": -1, "trial_index": 212}, {"rt": -1, "trial_type": "single-stim", "stimulus": "<div class = imageBox><img class = image src = img/line_images/2_mis_02_02.png </img></div>", "trial_id": "probe", "time_elapsed": 355206, "internal_node_id": "0.0-213.0", "key_press": -1, "trial_index": 213}, {"rt": 469, "trial_type": "single-stim", "stimulus": "<div class = centerbox style = text-align:center><p style = font-size:50px>Same or different? </p></div>", "trial_id": "response_line", "time_elapsed": 356691, "response": ["different"], "internal_node_id": "0.0-214.0", "key_press": 48, "trial_index": 214, "congruency": ["congruent"], "correct": true, "alignment": ["misaligned"]}, {"rt": -1, "trial_type": "single-stim", "stimulus": "<div class = imageBox><img class = image src = img/line_images/19_target_01_01.png </img></div>", "trial_id": "target", "time_elapsed": 357964, "internal_node_id": "0.0-215.0", "key_press": -1, "trial_index": 215}, {"rt": -1, "trial_type": "single-stim", "stimulus": "<div class = imageBox><img class = image src = img/Pmask4.jpg </img></div>", "trial_id": "mask", "time_elapsed": 359418, "internal_node_id": "0.0-216.0", "key_press": -1, "trial_index": 216}, {"rt": -1, "trial_type": "single-stim", "stimulus": "<div class = imageBox><img class = image src = img/line_images/19_mis_02_02.png </img></div>", "trial_id": "probe", "time_elapsed": 360692, "internal_node_id": "0.0-217.0", "key_press": -1, "trial_index": 217}, {"rt": 156, "trial_type": "single-stim", "stimulus": "<div class = centerbox style = text-align:center><p style = font-size:50px>Same or different? </p></div>", "trial_id": "response_line", "time_elapsed": 361867, "response": ["different"], "internal_node_id": "0.0-218.0", "key_press": 49, "trial_index": 218, "congruency": ["congruent"], "correct": false, "alignment": ["misaligned"]}, {"rt": -1, "trial_type": "single-stim", "stimulus": "<div class = imageBox><img class = image src = img/line_images/10_target_01_01.png </img></div>", "trial_id": "target", "time_elapsed": 363152, "internal_node_id": "0.0-219.0", "key_press": -1, "trial_index": 219}, {"rt": -1, "trial_type": "single-stim", "stimulus": "<div class = imageBox><img class = image src = img/Pmask5.jpg </img></div>", "trial_id": "mask", "time_elapsed": 364577, "internal_node_id": "0.0-220.0", "key_press": -1, "trial_index": 220}, {"rt": -1, "trial_type": "single-stim", "stimulus": "<div class = imageBox><img class = image src = img/line_images/10_mis_02_02.png </img></div>", "trial_id": "probe", "time_elapsed": 365807, "internal_node_id": "0.0-221.0", "key_press": -1, "trial_index": 221}, {"rt": 65, "trial_type": "single-stim", "stimulus": "<div class = centerbox style = text-align:center><p style = font-size:50px>Same or different? </p></div>", "trial_id": "response_line", "time_elapsed": 366904, "response": ["different"], "internal_node_id": "0.0-222.0", "key_press": 48, "trial_index": 222, "congruency": ["congruent"], "correct": true, "alignment": ["misaligned"]}, {"rt": -1, "trial_type": "single-stim", "stimulus": "<div class = imageBox><img class = image src = img/line_images/11_target_01_01.png </img></div>", "trial_id": "target", "time_elapsed": 368154, "internal_node_id": "0.0-223.0", "key_press": -1, "trial_index": 223}, {"rt": -1, "trial_type": "single-stim", "stimulus": "<div class = imageBox><img class = image src = img/Pmask2.jpg </img></div>", "trial_id": "mask", "time_elapsed": 369584, "internal_node_id": "0.0-224.0", "key_press": -1, "trial_index": 224}, {"rt": -1, "trial_type": "single-stim", "stimulus": "<div class = imageBox><img class = image src = img/line_images/11_mis_01_01.png </img></div>", "trial_id": "probe", "time_elapsed": 370831, "internal_node_id": "0.0-225.0", "key_press": -1, "trial_index": 225}, {"rt": 530, "trial_type": "single-stim", "stimulus": "<div class = centerbox style = text-align:center><p style = font-size:50px>Same or different? </p></div>", "trial_id": "response_line", "time_elapsed": 372373, "response": ["same"], "internal_node_id": "0.0-226.0", "key_press": 49, "trial_index": 226, "congruency": ["congruent"], "correct": true, "alignment": ["misaligned"]}, {"rt": -1, "trial_type": "single-stim", "stimulus": "<div class = imageBox><img class = image src = img/line_images/14_target_01_01.png </img></div>", "trial_id": "target", "time_elapsed": 373613, "internal_node_id": "0.0-227.0", "key_press": -1, "trial_index": 227}, {"rt": -1, "trial_type": "single-stim", "stimulus": "<div class = imageBox><img class = image src = img/Pmask5.jpg </img></div>", "trial_id": "mask", "time_elapsed": 375038, "internal_node_id": "0.0-228.0", "key_press": -1, "trial_index": 228}, {"rt": -1, "trial_type": "single-stim", "stimulus": "<div class = imageBox><img class = image src = img/line_images/14_mis_01_02.png </img></div>", "trial_id": "probe", "time_elapsed": 376277, "internal_node_id": "0.0-229.0", "key_press": -1, "trial_index": 229}, {"rt": 214, "trial_type": "single-stim", "stimulus": "<div class = centerbox style = text-align:center><p style = font-size:50px>Same or different? </p></div>", "trial_id": "response_line", "time_elapsed": 377519, "response": ["same"], "internal_node_id": "0.0-230.0", "key_press": 49, "trial_index": 230, "congruency": ["incongruent"], "correct": true, "alignment": ["misaligned"]}, {"rt": -1, "trial_type": "single-stim", "stimulus": "<div class = imageBox><img class = image src = img/line_images/1_target_01_01.png </img></div>", "trial_id": "target", "time_elapsed": 378741, "internal_node_id": "0.0-231.0", "key_press": -1, "trial_index": 231}, {"rt": -1, "trial_type": "single-stim", "stimulus": "<div class = imageBox><img class = image src = img/Pmask2.jpg </img></div>", "trial_id": "mask", "time_elapsed": 380184, "internal_node_id": "0.0-232.0", "key_press": -1, "trial_index": 232}, {"rt": -1, "trial_type": "single-stim", "stimulus": "<div class = imageBox><img class = image src = img/line_images/1_al_02_01.png </img></div>", "trial_id": "probe", "time_elapsed": 381415, "internal_node_id": "0.0-233.0", "key_press": -1, "trial_index": 233}, {"rt": 397, "trial_type": "single-stim", "stimulus": "<div class = centerbox style = text-align:center><p style = font-size:50px>Same or different? </p></div>", "trial_id": "response_line", "time_elapsed": 382833, "response": ["different"], "internal_node_id": "0.0-234.0", "key_press": 48, "trial_index": 234, "congruency": ["incongruent"], "correct": true, "alignment": ["aligned"]}, {"rt": -1, "trial_type": "single-stim", "stimulus": "<div class = imageBox><img class = image src = img/line_images/6_target_01_01.png </img></div>", "trial_id": "target", "time_elapsed": 384056, "internal_node_id": "0.0-235.0", "key_press": -1, "trial_index": 235}, {"rt": -1, "trial_type": "single-stim", "stimulus": "<div class = imageBox><img class = image src = img/Pmask5.jpg </img></div>", "trial_id": "mask", "time_elapsed": 385487, "internal_node_id": "0.0-236.0", "key_press": -1, "trial_index": 236}, {"rt": -1, "trial_type": "single-stim", "stimulus": "<div class = imageBox><img class = image src = img/line_images/6_mis_01_01.png </img></div>", "trial_id": "probe", "time_elapsed": 386737, "internal_node_id": "0.0-237.0", "key_press": -1, "trial_index": 237}, {"rt": 160, "trial_type": "single-stim", "stimulus": "<div class = centerbox style = text-align:center><p style = font-size:50px>Same or different? </p></div>", "trial_id": "response_line", "time_elapsed": 387907, "response": ["same"], "internal_node_id": "0.0-238.0", "key_press": 49, "trial_index": 238, "congruency": ["congruent"], "correct": true, "alignment": ["misaligned"]}, {"rt": -1, "trial_type": "single-stim", "stimulus": "<div class = imageBox><img class = image src = img/line_images/4_target_01_01.png </img></div>", "trial_id": "target", "time_elapsed": 389150, "internal_node_id": "0.0-239.0", "key_press": -1, "trial_index": 239}, {"rt": -1, "trial_type": "single-stim", "stimulus": "<div class = imageBox><img class = image src = img/Pmask1.jpg </img></div>", "trial_id": "mask", "time_elapsed": 390578, "internal_node_id": "0.0-240.0", "key_press": -1, "trial_index": 240}, {"rt": -1, "trial_type": "single-stim", "stimulus": "<div class = imageBox><img class = image src = img/line_images/4_al_01_01.png </img></div>", "trial_id": "probe", "time_elapsed": 391823, "internal_node_id": "0.0-241.0", "key_press": -1, "trial_index": 241}, {"rt": 648, "trial_type": "single-stim", "stimulus": "<div class = centerbox style = text-align:center><p style = font-size:50px>Same or different? </p></div>", "trial_id": "response_line", "time_elapsed": 393494, "response": ["same"], "internal_node_id": "0.0-242.0", "key_press": 49, "trial_index": 242, "congruency": ["congruent"], "correct": true, "alignment": ["aligned"]}, {"rt": -1, "trial_type": "single-stim", "stimulus": "<div class = imageBox><img class = image src = img/line_images/8_target_01_01.png </img></div>", "trial_id": "target", "time_elapsed": 394734, "internal_node_id": "0.0-243.0", "key_press": -1, "trial_index": 243}, {"rt": -1, "trial_type": "single-stim", "stimulus": "<div class = imageBox><img class = image src = img/Pmask2.jpg </img></div>", "trial_id": "mask", "time_elapsed": 396143, "internal_node_id": "0.0-244.0", "key_press": -1, "trial_index": 244}, {"rt": -1, "trial_type": "single-stim", "stimulus": "<div class = imageBox><img class = image src = img/line_images/8_al_02_02.png </img></div>", "trial_id": "probe", "time_elapsed": 397410, "internal_node_id": "0.0-245.0", "key_press": -1, "trial_index": 245}, {"rt": 655, "trial_type": "single-stim", "stimulus": "<div class = centerbox style = text-align:center><p style = font-size:50px>Same or different? </p></div>", "trial_id": "response_line", "time_elapsed": 399092, "response": ["different"], "internal_node_id": "0.0-246.0", "key_press": 49, "trial_index": 246, "congruency": ["congruent"], "correct": false, "alignment": ["aligned"]}, {"rt": -1, "trial_type": "single-stim", "stimulus": "<div class = imageBox><img class = image src = img/line_images/12_target_01_01.png </img></div>", "trial_id": "target", "time_elapsed": 400321, "internal_node_id": "0.0-247.0", "key_press": -1, "trial_index": 247}, {"rt": -1, "trial_type": "single-stim", "stimulus": "<div class = imageBox><img class = image src = img/Pmask5.jpg </img></div>", "trial_id": "mask", "time_elapsed": 401758, "internal_node_id": "0.0-248.0", "key_press": -1, "trial_index": 248}, {"rt": -1, "trial_type": "single-stim", "stimulus": "<div class = imageBox><img class = image src = img/line_images/12_al_01_01.png </img></div>", "trial_id": "probe", "time_elapsed": 402988, "internal_node_id": "0.0-249.0", "key_press": -1, "trial_index": 249}, {"rt": 323, "trial_type": "single-stim", "stimulus": "<div class = centerbox style = text-align:center><p style = font-size:50px>Same or different? </p></div>", "trial_id": "response_line", "time_elapsed": 404350, "response": ["same"], "internal_node_id": "0.0-250.0", "key_press": 49, "trial_index": 250, "congruency": ["congruent"], "correct": true, "alignment": ["aligned"]}, {"rt": -1, "trial_type": "single-stim", "stimulus": "<div class = imageBox><img class = image src = img/line_images/8_target_01_01.png </img></div>", "trial_id": "target", "time_elapsed": 405612, "internal_node_id": "0.0-251.0", "key_press": -1, "trial_index": 251}, {"rt": -1, "trial_type": "single-stim", "stimulus": "<div class = imageBox><img class = image src = img/Pmask1.jpg </img></div>", "trial_id": "mask", "time_elapsed": 407084, "internal_node_id": "0.0-252.0", "key_press": -1, "trial_index": 252}, {"rt": -1, "trial_type": "single-stim", "stimulus": "<div class = imageBox><img class = image src = img/line_images/8_al_01_02.png </img></div>", "trial_id": "probe", "time_elapsed": 408300, "internal_node_id": "0.0-253.0", "key_press": -1, "trial_index": 253}, {"rt": 106, "trial_type": "single-stim", "stimulus": "<div class = centerbox style = text-align:center><p style = font-size:50px>Same or different? </p></div>", "trial_id": "response_line", "time_elapsed": 409421, "response": ["same"], "internal_node_id": "0.0-254.0", "key_press": 49, "trial_index": 254, "congruency": ["incongruent"], "correct": true, "alignment": ["aligned"]}, {"rt": -1, "trial_type": "single-stim", "stimulus": "<div class = imageBox><img class = image src = img/line_images/19_target_01_01.png </img></div>", "trial_id": "target", "time_elapsed": 410664, "internal_node_id": "0.0-255.0", "key_press": -1, "trial_index": 255}, {"rt": -1, "trial_type": "single-stim", "stimulus": "<div class = imageBox><img class = image src = img/Pmask1.jpg </img></div>", "trial_id": "mask", "time_elapsed": 412091, "internal_node_id": "0.0-256.0", "key_press": -1, "trial_index": 256}, {"rt": -1, "trial_type": "single-stim", "stimulus": "<div class = imageBox><img class = image src = img/line_images/19_mis_01_01.png </img></div>", "trial_id": "probe", "time_elapsed": 413325, "internal_node_id": "0.0-257.0", "key_press": -1, "trial_index": 257}, {"rt": 592, "trial_type": "single-stim", "stimulus": "<div class = centerbox style = text-align:center><p style = font-size:50px>Same or different? </p></div>", "trial_id": "response_line", "time_elapsed": 414922, "response": ["same"], "internal_node_id": "0.0-258.0", "key_press": 49, "trial_index": 258, "congruency": ["congruent"], "correct": true, "alignment": ["misaligned"]}, {"rt": -1, "trial_type": "single-stim", "stimulus": "<div class = imageBox><img class = image src = img/line_images/9_target_01_01.png </img></div>", "trial_id": "target", "time_elapsed": 416156, "internal_node_id": "0.0-259.0", "key_press": -1, "trial_index": 259}, {"rt": -1, "trial_type": "single-stim", "stimulus": "<div class = imageBox><img class = image src = img/Pmask1.jpg </img></div>", "trial_id": "mask", "time_elapsed": 417625, "internal_node_id": "0.0-260.0", "key_press": -1, "trial_index": 260}, {"rt": -1, "trial_type": "single-stim", "stimulus": "<div class = imageBox><img class = image src = img/line_images/9_al_01_01.png </img></div>", "trial_id": "probe", "time_elapsed": 418890, "internal_node_id": "0.0-261.0", "key_press": -1, "trial_index": 261}, {"rt": 505, "trial_type": "single-stim", "stimulus": "<div class = centerbox style = text-align:center><p style = font-size:50px>Same or different? </p></div>", "trial_id": "response_line", "time_elapsed": 420401, "response": ["same"], "internal_node_id": "0.0-262.0", "key_press": 49, "trial_index": 262, "congruency": ["congruent"], "correct": true, "alignment": ["aligned"]}, {"rt": -1, "trial_type": "single-stim", "stimulus": "<div class = imageBox><img class = image src = img/line_images/16_target_01_01.png </img></div>", "trial_id": "target", "time_elapsed": 421641, "internal_node_id": "0.0-263.0", "key_press": -1, "trial_index": 263}, {"rt": -1, "trial_type": "single-stim", "stimulus": "<div class = imageBox><img class = image src = img/Pmask2.jpg </img></div>", "trial_id": "mask", "time_elapsed": 423070, "internal_node_id": "0.0-264.0", "key_press": -1, "trial_index": 264}, {"rt": -1, "trial_type": "single-stim", "stimulus": "<div class = imageBox><img class = image src = img/line_images/16_al_01_01.png </img></div>", "trial_id": "probe", "time_elapsed": 424305, "internal_node_id": "0.0-265.0", "key_press": -1, "trial_index": 265}, {"rt": 39, "trial_type": "single-stim", "stimulus": "<div class = centerbox style = text-align:center><p style = font-size:50px>Same or different? </p></div>", "trial_id": "response_line", "time_elapsed": 425349, "response": ["same"], "internal_node_id": "0.0-266.0", "key_press": 49, "trial_index": 266, "congruency": ["congruent"], "correct": true, "alignment": ["aligned"]}, {"rt": -1, "trial_type": "single-stim", "stimulus": "<div class = imageBox><img class = image src = img/line_images/8_target_01_01.png </img></div>", "trial_id": "target", "time_elapsed": 426605, "internal_node_id": "0.0-267.0", "key_press": -1, "trial_index": 267}, {"rt": -1, "trial_type": "single-stim", "stimulus": "<div class = imageBox><img class = image src = img/Pmask4.jpg </img></div>", "trial_id": "mask", "time_elapsed": 428037, "internal_node_id": "0.0-268.0", "key_press": -1, "trial_index": 268}, {"rt": -1, "trial_type": "single-stim", "stimulus": "<div class = imageBox><img class = image src = img/line_images/8_mis_01_01.png </img></div>", "trial_id": "probe", "time_elapsed": 429281, "internal_node_id": "0.0-269.0", "key_press": -1, "trial_index": 269}, {"rt": 519, "trial_type": "single-stim", "stimulus": "<div class = centerbox style = text-align:center><p style = font-size:50px>Same or different? </p></div>", "trial_id": "response_line", "time_elapsed": 430833, "response": ["same"], "internal_node_id": "0.0-270.0", "key_press": 48, "trial_index": 270, "congruency": ["congruent"], "correct": false, "alignment": ["misaligned"]}, {"rt": -1, "trial_type": "single-stim", "stimulus": "<div class = imageBox><img class = image src = img/line_images/2_target_01_01.png </img></div>", "trial_id": "target", "time_elapsed": 432110, "internal_node_id": "0.0-271.0", "key_press": -1, "trial_index": 271}, {"rt": -1, "trial_type": "single-stim", "stimulus": "<div class = imageBox><img class = image src = img/Pmask4.jpg </img></div>", "trial_id": "mask", "time_elapsed": 433532, "internal_node_id": "0.0-272.0", "key_press": -1, "trial_index": 272}, {"rt": -1, "trial_type": "single-stim", "stimulus": "<div class = imageBox><img class = image src = img/line_images/2_mis_01_02.png </img></div>", "trial_id": "probe", "time_elapsed": 434766, "internal_node_id": "0.0-273.0", "key_press": -1, "trial_index": 273}, {"rt": 349, "trial_type": "single-stim", "stimulus": "<div class = centerbox style = text-align:center><p style = font-size:50px>Same or different? </p></div>", "trial_id": "response_line", "time_elapsed": 436122, "response": ["same"], "internal_node_id": "0.0-274.0", "key_press": 49, "trial_index": 274, "congruency": ["incongruent"], "correct": true, "alignment": ["misaligned"]}, {"rt": -1, "trial_type": "single-stim", "stimulus": "<div class = imageBox><img class = image src = img/line_images/13_target_01_01.png </img></div>", "trial_id": "target", "time_elapsed": 437385, "internal_node_id": "0.0-275.0", "key_press": -1, "trial_index": 275}, {"rt": -1, "trial_type": "single-stim", "stimulus": "<div class = imageBox><img class = image src = img/Pmask4.jpg </img></div>", "trial_id": "mask", "time_elapsed": 438823, "internal_node_id": "0.0-276.0", "key_press": -1, "trial_index": 276}, {"rt": -1, "trial_type": "single-stim", "stimulus": "<div class = imageBox><img class = image src = img/line_images/13_al_02_02.png </img></div>", "trial_id": "probe", "time_elapsed": 440046, "internal_node_id": "0.0-277.0", "key_press": -1, "trial_index": 277}, {"rt": 42, "trial_type": "single-stim", "stimulus": "<div class = centerbox style = text-align:center><p style = font-size:50px>Same or different? </p></div>", "trial_id": "response_line", "time_elapsed": 441101, "response": ["different"], "internal_node_id": "0.0-278.0", "key_press": 48, "trial_index": 278, "congruency": ["congruent"], "correct": true, "alignment": ["aligned"]}, {"rt": -1, "trial_type": "single-stim", "stimulus": "<div class = imageBox><img class = image src = img/line_images/2_target_01_01.png </img></div>", "trial_id": "target", "time_elapsed": 442317, "internal_node_id": "0.0-279.0", "key_press": -1, "trial_index": 279}, {"rt": -1, "trial_type": "single-stim", "stimulus": "<div class = imageBox><img class = image src = img/Pmask3.jpg </img></div>", "trial_id": "mask", "time_elapsed": 443748, "internal_node_id": "0.0-280.0", "key_press": -1, "trial_index": 280}, {"rt": -1, "trial_type": "single-stim", "stimulus": "<div class = imageBox><img class = image src = img/line_images/2_al_02_02.png </img></div>", "trial_id": "probe", "time_elapsed": 444970, "internal_node_id": "0.0-281.0", "key_press": -1, "trial_index": 281}, {"rt": 379, "trial_type": "single-stim", "stimulus": "<div class = centerbox style = text-align:center><p style = font-size:50px>Same or different? </p></div>", "trial_id": "response_line", "time_elapsed": 446367, "response": ["different"], "internal_node_id": "0.0-282.0", "key_press": 48, "trial_index": 282, "congruency": ["congruent"], "correct": true, "alignment": ["aligned"]}, {"rt": -1, "trial_type": "single-stim", "stimulus": "<div class = imageBox><img class = image src = img/line_images/1_target_01_01.png </img></div>", "trial_id": "target", "time_elapsed": 447600, "internal_node_id": "0.0-283.0", "key_press": -1, "trial_index": 283}, {"rt": -1, "trial_type": "single-stim", "stimulus": "<div class = imageBox><img class = image src = img/Pmask2.jpg </img></div>", "trial_id": "mask", "time_elapsed": 449023, "internal_node_id": "0.0-284.0", "key_press": -1, "trial_index": 284}, {"rt": -1, "trial_type": "single-stim", "stimulus": "<div class = imageBox><img class = image src = img/line_images/1_al_01_02.png </img></div>", "trial_id": "probe", "time_elapsed": 450258, "internal_node_id": "0.0-285.0", "key_press": -1, "trial_index": 285}, {"rt": 1046, "trial_type": "single-stim", "stimulus": "<div class = centerbox style = text-align:center><p style = font-size:50px>Same or different? </p></div>", "trial_id": "response_line", "time_elapsed": 452324, "response": ["same"], "internal_node_id": "0.0-286.0", "key_press": 49, "trial_index": 286, "congruency": ["incongruent"], "correct": true, "alignment": ["aligned"]}, {"rt": -1, "trial_type": "single-stim", "stimulus": "<div class = imageBox><img class = image src = img/line_images/2_target_01_01.png </img></div>", "trial_id": "target", "time_elapsed": 453540, "internal_node_id": "0.0-287.0", "key_press": -1, "trial_index": 287}, {"rt": -1, "trial_type": "single-stim", "stimulus": "<div class = imageBox><img class = image src = img/Pmask3.jpg </img></div>", "trial_id": "mask", "time_elapsed": 454988, "internal_node_id": "0.0-288.0", "key_press": -1, "trial_index": 288}, {"rt": -1, "trial_type": "single-stim", "stimulus": "<div class = imageBox><img class = image src = img/line_images/2_mis_02_01.png </img></div>", "trial_id": "probe", "time_elapsed": 456224, "internal_node_id": "0.0-289.0", "key_press": -1, "trial_index": 289}, {"rt": 114, "trial_type": "single-stim", "stimulus": "<div class = centerbox style = text-align:center><p style = font-size:50px>Same or different? </p></div>", "trial_id": "response_line", "time_elapsed": 457357, "response": ["different"], "internal_node_id": "0.0-290.0", "key_press": 48, "trial_index": 290, "congruency": ["incongruent"], "correct": true, "alignment": ["misaligned"]}, {"rt": -1, "trial_type": "single-stim", "stimulus": "<div class = imageBox><img class = image src = img/line_images/5_target_01_01.png </img></div>", "trial_id": "target", "time_elapsed": 458599, "internal_node_id": "0.0-291.0", "key_press": -1, "trial_index": 291}, {"rt": -1, "trial_type": "single-stim", "stimulus": "<div class = imageBox><img class = image src = img/Pmask4.jpg </img></div>", "trial_id": "mask", "time_elapsed": 460033, "internal_node_id": "0.0-292.0", "key_press": -1, "trial_index": 292}, {"rt": -1, "trial_type": "single-stim", "stimulus": "<div class = imageBox><img class = image src = img/line_images/5_al_02_01.png </img></div>", "trial_id": "probe", "time_elapsed": 461272, "internal_node_id": "0.0-293.0", "key_press": -1, "trial_index": 293}, {"rt": 147, "trial_type": "single-stim", "stimulus": "<div class = centerbox style = text-align:center><p style = font-size:50px>Same or different? </p></div>", "trial_id": "response_line", "time_elapsed": 462478, "response": ["different"], "internal_node_id": "0.0-294.0", "key_press": 49, "trial_index": 294, "congruency": ["incongruent"], "correct": false, "alignment": ["aligned"]}, {"rt": -1, "trial_type": "single-stim", "stimulus": "<div class = imageBox><img class = image src = img/line_images/3_target_01_01.png </img></div>", "trial_id": "target", "time_elapsed": 463705, "internal_node_id": "0.0-295.0", "key_press": -1, "trial_index": 295}, {"rt": -1, "trial_type": "single-stim", "stimulus": "<div class = imageBox><img class = image src = img/Pmask5.jpg </img></div>", "trial_id": "mask", "time_elapsed": 465156, "internal_node_id": "0.0-296.0", "key_press": -1, "trial_index": 296}, {"rt": -1, "trial_type": "single-stim", "stimulus": "<div class = imageBox><img class = image src = img/line_images/3_al_01_01.png </img></div>", "trial_id": "probe", "time_elapsed": 466385, "internal_node_id": "0.0-297.0", "key_press": -1, "trial_index": 297}, {"rt": 502, "trial_type": "single-stim", "stimulus": "<div class = centerbox style = text-align:center><p style = font-size:50px>Same or different? </p></div>", "trial_id": "response_line", "time_elapsed": 467910, "response": ["same"], "internal_node_id": "0.0-298.0", "key_press": 49, "trial_index": 298, "congruency": ["congruent"], "correct": true, "alignment": ["aligned"]}, {"rt": -1, "trial_type": "single-stim", "stimulus": "<div class = imageBox><img class = image src = img/line_images/2_target_01_01.png </img></div>", "trial_id": "target", "time_elapsed": 469145, "internal_node_id": "0.0-299.0", "key_press": -1, "trial_index": 299}, {"rt": -1, "trial_type": "single-stim", "stimulus": "<div class = imageBox><img class = image src = img/Pmask3.jpg </img></div>", "trial_id": "mask", "time_elapsed": 470558, "internal_node_id": "0.0-300.0", "key_press": -1, "trial_index": 300}, {"rt": -1, "trial_type": "single-stim", "stimulus": "<div class = imageBox><img class = image src = img/line_images/2_al_01_02.png </img></div>", "trial_id": "probe", "time_elapsed": 471779, "internal_node_id": "0.0-301.0", "key_press": -1, "trial_index": 301}, {"rt": 469, "trial_type": "single-stim", "stimulus": "<div class = centerbox style = text-align:center><p style = font-size:50px>Same or different? </p></div>", "trial_id": "response_line", "time_elapsed": 473264, "response": ["same"], "internal_node_id": "0.0-302.0", "key_press": 48, "trial_index": 302, "congruency": ["incongruent"], "correct": false, "alignment": ["aligned"]}, {"rt": -1, "trial_type": "single-stim", "stimulus": "<div class = imageBox><img class = image src = img/line_images/14_target_01_01.png </img></div>", "trial_id": "target", "time_elapsed": 474502, "internal_node_id": "0.0-303.0", "key_press": -1, "trial_index": 303}, {"rt": -1, "trial_type": "single-stim", "stimulus": "<div class = imageBox><img class = image src = img/Pmask1.jpg </img></div>", "trial_id": "mask", "time_elapsed": 475938, "internal_node_id": "0.0-304.0", "key_press": -1, "trial_index": 304}, {"rt": -1, "trial_type": "single-stim", "stimulus": "<div class = imageBox><img class = image src = img/line_images/14_al_01_01.png </img></div>", "trial_id": "probe", "time_elapsed": 477192, "internal_node_id": "0.0-305.0", "key_press": -1, "trial_index": 305}, {"rt": 792, "trial_type": "single-stim", "stimulus": "<div class = centerbox style = text-align:center><p style = font-size:50px>Same or different? </p></div>", "trial_id": "response_line", "time_elapsed": 478992, "response": ["same"], "internal_node_id": "0.0-306.0", "key_press": 49, "trial_index": 306, "congruency": ["congruent"], "correct": true, "alignment": ["aligned"]}, {"rt": -1, "trial_type": "single-stim", "stimulus": "<div class = imageBox><img class = image src = img/line_images/15_target_01_01.png </img></div>", "trial_id": "target", "time_elapsed": 480228, "internal_node_id": "0.0-307.0", "key_press": -1, "trial_index": 307}, {"rt": -1, "trial_type": "single-stim", "stimulus": "<div class = imageBox><img class = image src = img/Pmask4.jpg </img></div>", "trial_id": "mask", "time_elapsed": 481643, "internal_node_id": "0.0-308.0", "key_press": -1, "trial_index": 308}, {"rt": -1, "trial_type": "single-stim", "stimulus": "<div class = imageBox><img class = image src = img/line_images/15_al_02_02.png </img></div>", "trial_id": "probe", "time_elapsed": 482863, "internal_node_id": "0.0-309.0", "key_press": -1, "trial_index": 309}, {"rt": 29, "trial_type": "single-stim", "stimulus": "<div class = centerbox style = text-align:center><p style = font-size:50px>Same or different? </p></div>", "trial_id": "response_line", "time_elapsed": 483904, "response": ["different"], "internal_node_id": "0.0-310.0", "key_press": 48, "trial_index": 310, "congruency": ["congruent"], "correct": true, "alignment": ["aligned"]}, {"rt": -1, "trial_type": "single-stim", "stimulus": "<div class = imageBox><img class = image src = img/line_images/13_target_01_01.png </img></div>", "trial_id": "target", "time_elapsed": 485124, "internal_node_id": "0.0-311.0", "key_press": -1, "trial_index": 311}, {"rt": -1, "trial_type": "single-stim", "stimulus": "<div class = imageBox><img class = image src = img/Pmask5.jpg </img></div>", "trial_id": "mask", "time_elapsed": 486572, "internal_node_id": "0.0-312.0", "key_press": -1, "trial_index": 312}, {"rt": -1, "trial_type": "single-stim", "stimulus": "<div class = imageBox><img class = image src = img/line_images/13_mis_02_02.png </img></div>", "trial_id": "probe", "time_elapsed": 487793, "internal_node_id": "0.0-313.0", "key_press": -1, "trial_index": 313}, {"rt": 67, "trial_type": "single-stim", "stimulus": "<div class = centerbox style = text-align:center><p style = font-size:50px>Same or different? </p></div>", "trial_id": "response_line", "time_elapsed": 488891, "response": ["different"], "internal_node_id": "0.0-314.0", "key_press": 48, "trial_index": 314, "congruency": ["congruent"], "correct": true, "alignment": ["misaligned"]}, {"rt": -1, "trial_type": "single-stim", "stimulus": "<div class = imageBox><img class = image src = img/line_images/6_target_01_01.png </img></div>", "trial_id": "target", "time_elapsed": 490126, "internal_node_id": "0.0-315.0", "key_press": -1, "trial_index": 315}, {"rt": -1, "trial_type": "single-stim", "stimulus": "<div class = imageBox><img class = image src = img/Pmask5.jpg </img></div>", "trial_id": "mask", "time_elapsed": 491575, "internal_node_id": "0.0-316.0", "key_press": -1, "trial_index": 316}, {"rt": -1, "trial_type": "single-stim", "stimulus": "<div class = imageBox><img class = image src = img/line_images/6_al_01_01.png </img></div>", "trial_id": "probe", "time_elapsed": 492812, "internal_node_id": "0.0-317.0", "key_press": -1, "trial_index": 317}, {"rt": 496, "trial_type": "single-stim", "stimulus": "<div class = centerbox style = text-align:center><p style = font-size:50px>Same or different? </p></div>", "trial_id": "response_line", "time_elapsed": 494319, "response": ["same"], "internal_node_id": "0.0-318.0", "key_press": 49, "trial_index": 318, "congruency": ["congruent"], "correct": true, "alignment": ["aligned"]}, {"rt": -1, "trial_type": "single-stim", "stimulus": "<div class = imageBox><img class = image src = img/line_images/12_target_01_01.png </img></div>", "trial_id": "target", "time_elapsed": 495553, "internal_node_id": "0.0-319.0", "key_press": -1, "trial_index": 319}, {"rt": -1, "trial_type": "single-stim", "stimulus": "<div class = imageBox><img class = image src = img/Pmask3.jpg </img></div>", "trial_id": "mask", "time_elapsed": 497017, "internal_node_id": "0.0-320.0", "key_press": -1, "trial_index": 320}, {"rt": -1, "trial_type": "single-stim", "stimulus": "<div class = imageBox><img class = image src = img/line_images/12_mis_01_02.png </img></div>", "trial_id": "probe", "time_elapsed": 498258, "internal_node_id": "0.0-321.0", "key_press": -1, "trial_index": 321}, {"rt": 30, "trial_type": "single-stim", "stimulus": "<div class = centerbox style = text-align:center><p style = font-size:50px>Same or different? </p></div>", "trial_id": "response_line", "time_elapsed": 499301, "response": ["same"], "internal_node_id": "0.0-322.0", "key_press": 49, "trial_index": 322, "congruency": ["incongruent"], "correct": true, "alignment": ["misaligned"]}, {"rt": -1, "trial_type": "single-stim", "stimulus": "<div class = imageBox><img class = image src = img/line_images/3_target_01_01.png </img></div>", "trial_id": "target", "time_elapsed": 500520, "internal_node_id": "0.0-323.0", "key_press": -1, "trial_index": 323}, {"rt": -1, "trial_type": "single-stim", "stimulus": "<div class = imageBox><img class = image src = img/Pmask1.jpg </img></div>", "trial_id": "mask", "time_elapsed": 501956, "internal_node_id": "0.0-324.0", "key_press": -1, "trial_index": 324}, {"rt": -1, "trial_type": "single-stim", "stimulus": "<div class = imageBox><img class = image src = img/line_images/3_al_02_02.png </img></div>", "trial_id": "probe", "time_elapsed": 503198, "internal_node_id": "0.0-325.0", "key_press": -1, "trial_index": 325}, {"rt": 483, "trial_type": "single-stim", "stimulus": "<div class = centerbox style = text-align:center><p style = font-size:50px>Same or different? </p></div>", "trial_id": "response_line", "time_elapsed": 504700, "response": ["different"], "internal_node_id": "0.0-326.0", "key_press": 49, "trial_index": 326, "congruency": ["congruent"], "correct": false, "alignment": ["aligned"]}, {"rt": -1, "trial_type": "single-stim", "stimulus": "<div class = imageBox><img class = image src = img/line_images/19_target_01_01.png </img></div>", "trial_id": "target", "time_elapsed": 505972, "internal_node_id": "0.0-327.0", "key_press": -1, "trial_index": 327}, {"rt": -1, "trial_type": "single-stim", "stimulus": "<div class = imageBox><img class = image src = img/Pmask3.jpg </img></div>", "trial_id": "mask", "time_elapsed": 507402, "internal_node_id": "0.0-328.0", "key_press": -1, "trial_index": 328}, {"rt": -1, "trial_type": "single-stim", "stimulus": "<div class = imageBox><img class = image src = img/line_images/19_al_01_02.png </img></div>", "trial_id": "probe", "time_elapsed": 508650, "internal_node_id": "0.0-329.0", "key_press": -1, "trial_index": 329}, {"rt": 1135, "trial_type": "single-stim", "stimulus": "<div class = centerbox style = text-align:center><p style = font-size:50px>Same or different? </p></div>", "trial_id": "response_line", "time_elapsed": 510829, "response": ["same"], "internal_node_id": "0.0-330.0", "key_press": 48, "trial_index": 330, "congruency": ["incongruent"], "correct": false, "alignment": ["aligned"]}, {"rt": -1, "trial_type": "single-stim", "stimulus": "<div class = imageBox><img class = image src = img/line_images/3_target_01_01.png </img></div>", "trial_id": "target", "time_elapsed": 512063, "internal_node_id": "0.0-331.0", "key_press": -1, "trial_index": 331}, {"rt": -1, "trial_type": "single-stim", "stimulus": "<div class = imageBox><img class = image src = img/Pmask1.jpg </img></div>", "trial_id": "mask", "time_elapsed": 513508, "internal_node_id": "0.0-332.0", "key_press": -1, "trial_index": 332}, {"rt": -1, "trial_type": "single-stim", "stimulus": "<div class = imageBox><img class = image src = img/line_images/3_mis_02_02.png </img></div>", "trial_id": "probe", "time_elapsed": 514753, "internal_node_id": "0.0-333.0", "key_press": -1, "trial_index": 333}, {"rt": 311, "trial_type": "single-stim", "stimulus": "<div class = centerbox style = text-align:center><p style = font-size:50px>Same or different? </p></div>", "trial_id": "response_line", "time_elapsed": 516085, "response": ["different"], "internal_node_id": "0.0-334.0", "key_press": 48, "trial_index": 334, "congruency": ["congruent"], "correct": true, "alignment": ["misaligned"]}, {"rt": -1, "trial_type": "single-stim", "stimulus": "<div class = imageBox><img class = image src = img/line_images/5_target_01_01.png </img></div>", "trial_id": "target", "time_elapsed": 517353, "internal_node_id": "0.0-335.0", "key_press": -1, "trial_index": 335}, {"rt": -1, "trial_type": "single-stim", "stimulus": "<div class = imageBox><img class = image src = img/Pmask5.jpg </img></div>", "trial_id": "mask", "time_elapsed": 518782, "internal_node_id": "0.0-336.0", "key_press": -1, "trial_index": 336}, {"rt": -1, "trial_type": "single-stim", "stimulus": "<div class = imageBox><img class = image src = img/line_images/5_mis_02_01.png </img></div>", "trial_id": "probe", "time_elapsed": 520007, "internal_node_id": "0.0-337.0", "key_press": -1, "trial_index": 337}, {"rt": 1489, "trial_type": "single-stim", "stimulus": "<div class = centerbox style = text-align:center><p style = font-size:50px>Same or different? </p></div>", "trial_id": "response_line", "time_elapsed": 522500, "response": ["different"], "internal_node_id": "0.0-338.0", "key_press": 48, "trial_index": 338, "congruency": ["incongruent"], "correct": true, "alignment": ["misaligned"]}, {"rt": -1, "trial_type": "single-stim", "stimulus": "<div class = imageBox><img class = image src = img/line_images/1_target_01_01.png </img></div>", "trial_id": "target", "time_elapsed": 523754, "internal_node_id": "0.0-339.0", "key_press": -1, "trial_index": 339}, {"rt": -1, "trial_type": "single-stim", "stimulus": "<div class = imageBox><img class = image src = img/Pmask1.jpg </img></div>", "trial_id": "mask", "time_elapsed": 525200, "internal_node_id": "0.0-340.0", "key_press": -1, "trial_index": 340}, {"rt": -1, "trial_type": "single-stim", "stimulus": "<div class = imageBox><img class = image src = img/line_images/1_mis_02_02.png </img></div>", "trial_id": "probe", "time_elapsed": 526444, "internal_node_id": "0.0-341.0", "key_press": -1, "trial_index": 341}, {"rt": 401, "trial_type": "single-stim", "stimulus": "<div class = centerbox style = text-align:center><p style = font-size:50px>Same or different? </p></div>", "trial_id": "response_line", "time_elapsed": 527861, "response": ["different"], "internal_node_id": "0.0-342.0", "key_press": 48, "trial_index": 342, "congruency": ["congruent"], "correct": true, "alignment": ["misaligned"]}, {"rt": -1, "trial_type": "single-stim", "stimulus": "<div class = imageBox><img class = image src = img/line_images/15_target_01_01.png </img></div>", "trial_id": "target", "time_elapsed": 529079, "internal_node_id": "0.0-343.0", "key_press": -1, "trial_index": 343}, {"rt": -1, "trial_type": "single-stim", "stimulus": "<div class = imageBox><img class = image src = img/Pmask2.jpg </img></div>", "trial_id": "mask", "time_elapsed": 530552, "internal_node_id": "0.0-344.0", "key_press": -1, "trial_index": 344}, {"rt": -1, "trial_type": "single-stim", "stimulus": "<div class = imageBox><img class = image src = img/line_images/15_mis_02_01.png </img></div>", "trial_id": "probe", "time_elapsed": 531803, "internal_node_id": "0.0-345.0", "key_press": -1, "trial_index": 345}, {"rt": 725, "trial_type": "single-stim", "stimulus": "<div class = centerbox style = text-align:center><p style = font-size:50px>Same or different? </p></div>", "trial_id": "response_line", "time_elapsed": 533537, "response": ["different"], "internal_node_id": "0.0-346.0", "key_press": 48, "trial_index": 346, "congruency": ["incongruent"], "correct": true, "alignment": ["misaligned"]}, {"rt": -1, "trial_type": "single-stim", "stimulus": "<div class = imageBox><img class = image src = img/line_images/11_target_01_01.png </img></div>", "trial_id": "target", "time_elapsed": 534751, "internal_node_id": "0.0-347.0", "key_press": -1, "trial_index": 347}, {"rt": -1, "trial_type": "single-stim", "stimulus": "<div class = imageBox><img class = image src = img/Pmask4.jpg </img></div>", "trial_id": "mask", "time_elapsed": 536185, "internal_node_id": "0.0-348.0", "key_press": -1, "trial_index": 348}, {"rt": -1, "trial_type": "single-stim", "stimulus": "<div class = imageBox><img class = image src = img/line_images/11_al_01_01.png </img></div>", "trial_id": "probe", "time_elapsed": 537412, "internal_node_id": "0.0-349.0", "key_press": -1, "trial_index": 349}, {"rt": 422, "trial_type": "single-stim", "stimulus": "<div class = centerbox style = text-align:center><p style = font-size:50px>Same or different? </p></div>", "trial_id": "response_line", "time_elapsed": 538930, "response": ["same"], "intern