{"AutoApprovalTime": "2017-12-06T21:08:51Z", "AssignmentId": "3EA3QWIZ4IVME8DILFXV708DJF3TIB", "WorkerId": "anon6", "answers": {"data": [{"rt": -1, "trial_type": "text", "time_elapsed": 1948, "internal_node_id": "0.0-0.0", "key_press": 13, "trial_index": 0}, {"rt": -1, "trial_type": "text", "time_elapsed": 27299, "internal_node_id": "0.0-1.0", "key_press": 13, "trial_index": 1}, {"rt": -1, "trial_type": "single-stim", "stimulus": "<div class = imageBox><img class = image src = img/line_images/22_target_01_01.png </img></div>", "time_elapsed": 29722, "internal_node_id": "0.0-2.0", "key_press": -1, "trial_index": 2}, {"rt": -1, "trial_type": "single-stim", "stimulus": "<div class = imageBox><img class = image src = img/Pmask5.jpg </img></div>", "trial_id": "mask", "time_elapsed": 31125, "internal_node_id": "0.0-3.0", "key_press": -1, "trial_index": 3}, {"rt": -1, "trial_type": "single-stim", "stimulus": "<div class = imageBox><img class = image src = img/line_images/22_al_02_02.png </img></div>", "time_elapsed": 32529, "internal_node_id": "0.0-4.0", "key_press": -1, "trial_index": 4}, {"rt": -1, "trial_type": "single-stim", "stimulus": "<div class = centerbox style = text-align:center><p style = font-size:50px>Same or different? </p></div>", "internal_node_id": "0.0-5.0", "response": ["different"], "time_elapsed": 35832, "key_press": 48, "correct": true, "trial_index": 5}, {"rt": -1, "trial_type": "single-stim", "stimulus": "<div class = centerbox style = text-align:center><p style = font-size:40px><span class = 'large' style = 'color:green'>Correct!</span> </p></div>", "time_elapsed": 37335, "internal_node_id": "0.0-6.0", "key_press": -1, "trial_index": 6}, {"rt": -1, "trial_type": "single-stim", "stimulus": "<div class = imageBox><img class = image src = img/line_images/24_target_01_01.png </img></div>", "time_elapsed": 38739, "internal_node_id": "0.0-7.0", "key_press": -1, "trial_index": 7}, {"rt": -1, "trial_type": "single-stim", "stimulus": "<div class = imageBox><img class = image src = img/Pmask1.jpg </img></div>", "trial_id": "mask", "time_elapsed": 40143, "internal_node_id": "0.0-8.0", "key_press": -1, "trial_index": 8}, {"rt": -1, "trial_type": "single-stim", "stimulus": "<div class = imageBox><img class = image src = img/line_images/24_al_01_01.png </img></div>", "time_elapsed": 41547, "internal_node_id": "0.0-9.0", "key_press": -1, "trial_index": 9}, {"rt": -1, "trial_type": "single-stim", "stimulus": "<div class = centerbox style = text-align:center><p style = font-size:50px>Same or different? </p></div>", "internal_node_id": "0.0-10.0", "response": ["same"], "time_elapsed": 43417, "key_press": 48, "correct": false, "trial_index": 10}, {"rt": -1, "trial_type": "single-stim", "stimulus": "<div class = centerbox style = text-align:center><p style = font-size:40px><span class = 'large' style = 'color:red'>Incorrect</span> </p></div>", "time_elapsed": 44919, "internal_node_id": "0.0-11.0", "key_press": -1, "trial_index": 11}, {"rt": -1, "trial_type": "single-stim", "stimulus": "<div class = imageBox><img class = image src = img/line_images/24_target_01_01.png </img></div>", "time_elapsed": 46322, "internal_node_id": "0.0-12.0", "key_press": -1, "trial_index": 12}, {"rt": -1, "trial_type": "single-stim", "stimulus": "<div class = imageBox><img class = image src = img/Pmask5.jpg </img></div>", "trial_id": "mask", "time_elapsed": 47724, "internal_node_id": "0.0-13.0", "key_press": -1, "trial_index": 13}, {"rt": -1, "trial_type": "single-stim", "stimulus": "<div class = imageBox><img class = image src = img/line_images/24_al_02_02.png </img></div>", "time_elapsed": 49127, "internal_node_id": "0.0-14.0", "key_press": -1, "trial_index": 14}, {"rt": -1, "trial_type": "single-stim", "stimulus": "<div class = centerbox style = text-align:center><p style = font-size:50px>Same or different? </p></div>", "internal_node_id": "0.0-15.0", "response": ["different"], "time_elapsed": 51038, "key_press": 49, "correct": false, "trial_index": 15}, {"rt": -1, "trial_type": "single-stim", "stimulus": "<div class = centerbox style = text-align:center><p style = font-size:40px><span class = 'large' style = 'color:red'>Incorrect</span> </p></div>", "time_elapsed": 52542, "internal_node_id": "0.0-16.0", "key_press": -1, "trial_index": 16}, {"rt": -1, "trial_type": "single-stim", "stimulus": "<div class = imageBox><img class = image src = img/line_images/22_target_01_01.png </img></div>", "time_elapsed": 53946, "internal_node_id": "0.0-17.0", "key_press": -1, "trial_index": 17}, {"rt": -1, "trial_type": "single-stim", "stimulus": "<div class = imageBox><img class = image src = img/Pmask3.jpg </img></div>", "trial_id": "mask", "time_elapsed": 55350, "internal_node_id": "0.0-18.0", "key_press": -1, "trial_index": 18}, {"rt": -1, "trial_type": "single-stim", "stimulus": "<div class = imageBox><img class = image src = img/line_images/22_mis_02_01.png </img></div>", "time_elapsed": 56753, "internal_node_id": "0.0-19.0", "key_press": -1, "trial_index": 19}, {"rt": -1, "trial_type": "single-stim", "stimulus": "<div class = centerbox style = text-align:center><p style = font-size:50px>Same or different? </p></div>", "internal_node_id": "0.0-20.0", "response": ["different"], "time_elapsed": 58553, "key_press": 49, "correct": false, "trial_index": 20}, {"rt": -1, "trial_type": "single-stim", "stimulus": "<div class = centerbox style = text-align:center><p style = font-size:40px><span class = 'large' style = 'color:red'>Incorrect</span> </p></div>", "time_elapsed": 60059, "internal_node_id": "0.0-21.0", "key_press": -1, "trial_index": 21}, {"rt": -1, "trial_type": "single-stim", "stimulus": "<div class = imageBox><img class = image src = img/line_images/22_target_01_01.png </img></div>", "time_elapsed": 61465, "internal_node_id": "0.0-22.0", "key_press": -1, "trial_index": 22}, {"rt": -1, "trial_type": "single-stim", "stimulus": "<div class = imageBox><img class = image src = img/Pmask3.jpg </img></div>", "trial_id": "mask", "time_elapsed": 62872, "internal_node_id": "0.0-23.0", "key_press": -1, "trial_index": 23}, {"rt": -1, "trial_type": "single-stim", "stimulus": "<div class = imageBox><img class = image src = img/line_images/22_mis_01_01.png </img></div>", "time_elapsed": 64277, "internal_node_id": "0.0-24.0", "key_press": -1, "trial_index": 24}, {"rt": -1, "trial_type": "single-stim", "stimulus": "<div class = centerbox style = text-align:center><p style = font-size:50px>Same or different? </p></div>", "internal_node_id": "0.0-25.0", "response": ["same"], "time_elapsed": 65752, "key_press": 49, "correct": true, "trial_index": 25}, {"rt": -1, "trial_type": "single-stim", "stimulus": "<div class = centerbox style = text-align:center><p style = font-size:40px><span class = 'large' style = 'color:green'>Correct!</span> </p></div>", "time_elapsed": 67258, "internal_node_id": "0.0-26.0", "key_press": -1, "trial_index": 26}, {"rt": -1, "trial_type": "single-stim", "stimulus": "<div class = imageBox><img class = image src = img/line_images/21_target_01_01.png </img></div>", "time_elapsed": 68664, "internal_node_id": "0.0-27.0", "key_press": -1, "trial_index": 27}, {"rt": -1, "trial_type": "single-stim", "stimulus": "<div class = imageBox><img class = image src = img/Pmask5.jpg </img></div>", "trial_id": "mask", "time_elapsed": 70070, "internal_node_id": "0.0-28.0", "key_press": -1, "trial_index": 28}, {"rt": -1, "trial_type": "single-stim", "stimulus": "<div class = imageBox><img class = image src = img/line_images/21_mis_01_02.png </img></div>", "time_elapsed": 71475, "internal_node_id": "0.0-29.0", "key_press": -1, "trial_index": 29}, {"rt": -1, "trial_type": "single-stim", "stimulus": "<div class = centerbox style = text-align:center><p style = font-size:50px>Same or different? </p></div>", "internal_node_id": "0.0-30.0", "response": ["same"], "time_elapsed": 72840, "key_press": 48, "correct": false, "trial_index": 30}, {"rt": -1, "trial_type": "single-stim", "stimulus": "<div class = centerbox style = text-align:center><p style = font-size:40px><span class = 'large' style = 'color:red'>Incorrect</span> </p></div>", "time_elapsed": 74343, "internal_node_id": "0.0-31.0", "key_press": -1, "trial_index": 31}, {"rt": -1, "trial_type": "single-stim", "stimulus": "<div class = imageBox><img class = image src = img/line_images/21_target_01_01.png </img></div>", "time_elapsed": 75746, "internal_node_id": "0.0-32.0", "key_press": -1, "trial_index": 32}, {"rt": -1, "trial_type": "single-stim", "stimulus": "<div class = imageBox><img class = image src = img/Pmask3.jpg </img></div>", "trial_id": "mask", "time_elapsed": 77150, "internal_node_id": "0.0-33.0", "key_press": -1, "trial_index": 33}, {"rt": -1, "trial_type": "single-stim", "stimulus": "<div class = imageBox><img class = image src = img/line_images/21_al_01_02.png </img></div>", "time_elapsed": 78558, "internal_node_id": "0.0-34.0", "key_press": -1, "trial_index": 34}, {"rt": -1, "trial_type": "single-stim", "stimulus": "<div class = centerbox style = text-align:center><p style = font-size:50px>Same or different? </p></div>", "internal_node_id": "0.0-35.0", "response": ["same"], "time_elapsed": 80470, "key_press": 49, "correct": true, "trial_index": 35}, {"rt": -1, "trial_type": "single-stim", "stimulus": "<div class = centerbox style = text-align:center><p style = font-size:40px><span class = 'large' style = 'color:green'>Correct!</span> </p></div>", "time_elapsed": 81977, "internal_node_id": "0.0-36.0", "key_press": -1, "trial_index": 36}, {"rt": -1, "trial_type": "single-stim", "stimulus": "<div class = imageBox><img class = image src = img/line_images/21_target_01_01.png </img></div>", "time_elapsed": 83384, "internal_node_id": "0.0-37.0", "key_press": -1, "trial_index": 37}, {"rt": -1, "trial_type": "single-stim", "stimulus": "<div class = imageBox><img class = image src = img/Pmask4.jpg </img></div>", "trial_id": "mask", "time_elapsed": 84788, "internal_node_id": "0.0-38.0", "key_press": -1, "trial_index": 38}, {"rt": -1, "trial_type": "single-stim", "stimulus": "<div class = imageBox><img class = image src = img/line_images/21_al_01_01.png </img></div>", "time_elapsed": 86191, "internal_node_id": "0.0-39.0", "key_press": -1, "trial_index": 39}, {"rt": -1, "trial_type": "single-stim", "stimulus": "<div class = centerbox style = text-align:center><p style = font-size:50px>Same or different? </p></div>", "internal_node_id": "0.0-40.0", "response": ["same"], "time_elapsed": 89305, "key_press": 48, "correct": false, "trial_index": 40}, {"rt": -1, "trial_type": "single-stim", "stimulus": "<div class = centerbox style = text-align:center><p style = font-size:40px><span class = 'large' style = 'color:red'>Incorrect</span> </p></div>", "time_elapsed": 90811, "internal_node_id": "0.0-41.0", "key_press": -1, "trial_index": 41}, {"rt": -1, "trial_type": "text", "time_elapsed": 179920, "internal_node_id": "0.0-42.0", "key_press": 13, "trial_index": 42}, {"rt": -1, "trial_type": "single-stim", "stimulus": "<div class = imageBox><img class = image src = img/line_images/11_target_01_01.png </img></div>", "trial_id": "target", "time_elapsed": 182123, "internal_node_id": "0.0-43.0", "key_press": -1, "trial_index": 43}, {"rt": -1, "trial_type": "single-stim", "stimulus": "<div class = imageBox><img class = image src = img/Pmask2.jpg </img></div>", "trial_id": "mask", "time_elapsed": 183525, "internal_node_id": "0.0-44.0", "key_press": -1, "trial_index": 44}, {"rt": -1, "trial_type": "single-stim", "stimulus": "<div class = imageBox><img class = image src = img/line_images/11_mis_02_02.png </img></div>", "trial_id": "probe", "time_elapsed": 184729, "internal_node_id": "0.0-45.0", "key_press": -1, "trial_index": 45}, {"rt": 961, "trial_type": "single-stim", "stimulus": "<div class = centerbox style = text-align:center><p style = font-size:50px>Same or different? </p></div>", "trial_id": "response_line", "time_elapsed": 186694, "response": ["different"], "internal_node_id": "0.0-46.0", "key_press": 48, "trial_index": 46, "congruency": ["congruent"], "correct": true, "alignment": ["misaligned"]}, {"rt": -1, "trial_type": "single-stim", "stimulus": "<div class = imageBox><img class = image src = img/line_images/7_target_01_01.png </img></div>", "trial_id": "target", "time_elapsed": 187898, "internal_node_id": "0.0-47.0", "key_press": -1, "trial_index": 47}, {"rt": -1, "trial_type": "single-stim", "stimulus": "<div class = imageBox><img class = image src = img/Pmask5.jpg </img></div>", "trial_id": "mask", "time_elapsed": 189302, "internal_node_id": "0.0-48.0", "key_press": -1, "trial_index": 48}, {"rt": -1, "trial_type": "single-stim", "stimulus": "<div class = imageBox><img class = image src = img/line_images/7_mis_01_01.png </img></div>", "trial_id": "probe", "time_elapsed": 190504, "internal_node_id": "0.0-49.0", "key_press": -1, "trial_index": 49}, {"rt": 412, "trial_type": "single-stim", "stimulus": "<div class = centerbox style = text-align:center><p style = font-size:50px>Same or different? </p></div>", "trial_id": "response_line", "time_elapsed": 191920, "response": ["same"], "internal_node_id": "0.0-50.0", "key_press": 48, "trial_index": 50, "congruency": ["congruent"], "correct": false, "alignment": ["misaligned"]}, {"rt": -1, "trial_type": "single-stim", "stimulus": "<div class = imageBox><img class = image src = img/line_images/4_target_01_01.png </img></div>", "trial_id": "target", "time_elapsed": 193123, "internal_node_id": "0.0-51.0", "key_press": -1, "trial_index": 51}, {"rt": -1, "trial_type": "single-stim", "stimulus": "<div class = imageBox><img class = image src = img/Pmask3.jpg </img></div>", "trial_id": "mask", "time_elapsed": 194527, "internal_node_id": "0.0-52.0", "key_press": -1, "trial_index": 52}, {"rt": -1, "trial_type": "single-stim", "stimulus": "<div class = imageBox><img class = image src = img/line_images/4_mis_01_02.png </img></div>", "trial_id": "probe", "time_elapsed": 195732, "internal_node_id": "0.0-53.0", "key_press": -1, "trial_index": 53}, {"rt": 716, "trial_type": "single-stim", "stimulus": "<div class = centerbox style = text-align:center><p style = font-size:50px>Same or different? </p></div>", "trial_id": "response_line", "time_elapsed": 197454, "response": ["same"], "internal_node_id": "0.0-54.0", "key_press": 48, "trial_index": 54, "congruency": ["incongruent"], "correct": false, "alignment": ["misaligned"]}, {"rt": -1, "trial_type": "single-stim", "stimulus": "<div class = imageBox><img class = image src = img/line_images/13_target_01_01.png </img></div>", "trial_id": "target", "time_elapsed": 198657, "internal_node_id": "0.0-55.0", "key_press": -1, "trial_index": 55}, {"rt": -1, "trial_type": "single-stim", "stimulus": "<div class = imageBox><img class = image src = img/Pmask1.jpg </img></div>", "trial_id": "mask", "time_elapsed": 200061, "internal_node_id": "0.0-56.0", "key_press": -1, "trial_index": 56}, {"rt": -1, "trial_type": "single-stim", "stimulus": "<div class = imageBox><img class = image src = img/line_images/13_al_02_02.png </img></div>", "trial_id": "probe", "time_elapsed": 201263, "internal_node_id": "0.0-57.0", "key_press": -1, "trial_index": 57}, {"rt": 246, "trial_type": "single-stim", "stimulus": "<div class = centerbox style = text-align:center><p style = font-size:50px>Same or different? </p></div>", "trial_id": "response_line", "time_elapsed": 202513, "response": ["different"], "internal_node_id": "0.0-58.0", "key_press": 49, "trial_index": 58, "congruency": ["congruent"], "correct": false, "alignment": ["aligned"]}, {"rt": -1, "trial_type": "single-stim", "stimulus": "<div class = imageBox><img class = image src = img/line_images/2_target_01_01.png </img></div>", "trial_id": "target", "time_elapsed": 203715, "internal_node_id": "0.0-59.0", "key_press": -1, "trial_index": 59}, {"rt": -1, "trial_type": "single-stim", "stimulus": "<div class = imageBox><img class = image src = img/Pmask1.jpg </img></div>", "trial_id": "mask", "time_elapsed": 205121, "internal_node_id": "0.0-60.0", "key_press": -1, "trial_index": 60}, {"rt": -1, "trial_type": "single-stim", "stimulus": "<div class = imageBox><img class = image src = img/line_images/2_al_01_02.png </img></div>", "trial_id": "probe", "time_elapsed": 206324, "internal_node_id": "0.0-61.0", "key_press": -1, "trial_index": 61}, {"rt": 398, "trial_type": "single-stim", "stimulus": "<div class = centerbox style = text-align:center><p style = font-size:50px>Same or different? </p></div>", "trial_id": "response_line", "time_elapsed": 207726, "response": ["same"], "internal_node_id": "0.0-62.0", "key_press": 48, "trial_index": 62, "congruency": ["incongruent"], "correct": false, "alignment": ["aligned"]}, {"rt": -1, "trial_type": "single-stim", "stimulus": "<div class = imageBox><img class = image src = img/line_images/19_target_01_01.png </img></div>", "trial_id": "target", "time_elapsed": 208929, "internal_node_id": "0.0-63.0", "key_press": -1, "trial_index": 63}, {"rt": -1, "trial_type": "single-stim", "stimulus": "<div class = imageBox><img class = image src = img/Pmask4.jpg </img></div>", "trial_id": "mask", "time_elapsed": 210333, "internal_node_id": "0.0-64.0", "key_press": -1, "trial_index": 64}, {"rt": -1, "trial_type": "single-stim", "stimulus": "<div class = imageBox><img class = image src = img/line_images/19_mis_01_01.png </img></div>", "trial_id": "probe", "time_elapsed": 211536, "internal_node_id": "0.0-65.0", "key_press": -1, "trial_index": 65}, {"rt": 1118, "trial_type": "single-stim", "stimulus": "<div class = centerbox style = text-align:center><p style = font-size:50px>Same or different? </p></div>", "trial_id": "response_line", "time_elapsed": 213656, "response": ["same"], "internal_node_id": "0.0-66.0", "key_press": 48, "trial_index": 66, "congruency": ["congruent"], "correct": false, "alignment": ["misaligned"]}, {"rt": -1, "trial_type": "single-stim", "stimulus": "<div class = imageBox><img class = image src = img/line_images/4_target_01_01.png </img></div>", "trial_id": "target", "time_elapsed": 214859, "internal_node_id": "0.0-67.0", "key_press": -1, "trial_index": 67}, {"rt": -1, "trial_type": "single-stim", "stimulus": "<div class = imageBox><img class = image src = img/Pmask3.jpg </img></div>", "trial_id": "mask", "time_elapsed": 216263, "internal_node_id": "0.0-68.0", "key_press": -1, "trial_index": 68}, {"rt": -1, "trial_type": "single-stim", "stimulus": "<div class = imageBox><img class = image src = img/line_images/4_al_01_01.png </img></div>", "trial_id": "probe", "time_elapsed": 217469, "internal_node_id": "0.0-69.0", "key_press": -1, "trial_index": 69}, {"rt": 454, "trial_type": "single-stim", "stimulus": "<div class = centerbox style = text-align:center><p style = font-size:50px>Same or different? </p></div>", "trial_id": "response_line", "time_elapsed": 218927, "response": ["same"], "internal_node_id": "0.0-70.0", "key_press": 49, "trial_index": 70, "congruency": ["congruent"], "correct": true, "alignment": ["aligned"]}, {"rt": -1, "trial_type": "single-stim", "stimulus": "<div class = imageBox><img class = image src = img/line_images/19_target_01_01.png </img></div>", "trial_id": "target", "time_elapsed": 220130, "internal_node_id": "0.0-71.0", "key_press": -1, "trial_index": 71}, {"rt": -1, "trial_type": "single-stim", "stimulus": "<div class = imageBox><img class = image src = img/Pmask4.jpg </img></div>", "trial_id": "mask", "time_elapsed": 221535, "internal_node_id": "0.0-72.0", "key_press": -1, "trial_index": 72}, {"rt": -1, "trial_type": "single-stim", "stimulus": "<div class = imageBox><img class = image src = img/line_images/19_mis_01_02.png </img></div>", "trial_id": "probe", "time_elapsed": 222739, "internal_node_id": "0.0-73.0", "key_press": -1, "trial_index": 73}, {"rt": 474, "trial_type": "single-stim", "stimulus": "<div class = centerbox style = text-align:center><p style = font-size:50px>Same or different? </p></div>", "trial_id": "response_line", "time_elapsed": 224216, "response": ["same"], "internal_node_id": "0.0-74.0", "key_press": 48, "trial_index": 74, "congruency": ["incongruent"], "correct": false, "alignment": ["misaligned"]}, {"rt": -1, "trial_type": "single-stim", "stimulus": "<div class = imageBox><img class = image src = img/line_images/12_target_01_01.png </img></div>", "trial_id": "target", "time_elapsed": 225418, "internal_node_id": "0.0-75.0", "key_press": -1, "trial_index": 75}, {"rt": -1, "trial_type": "single-stim", "stimulus": "<div class = imageBox><img class = image src = img/Pmask2.jpg </img></div>", "trial_id": "mask", "time_elapsed": 226820, "internal_node_id": "0.0-76.0", "key_press": -1, "trial_index": 76}, {"rt": -1, "trial_type": "single-stim", "stimulus": "<div class = imageBox><img class = image src = img/line_images/12_al_02_02.png </img></div>", "trial_id": "probe", "time_elapsed": 228022, "internal_node_id": "0.0-77.0", "key_press": -1, "trial_index": 77}, {"rt": 438, "trial_type": "single-stim", "stimulus": "<div class = centerbox style = text-align:center><p style = font-size:50px>Same or different? </p></div>", "trial_id": "response_line", "time_elapsed": 229462, "response": ["different"], "internal_node_id": "0.0-78.0", "key_press": 48, "trial_index": 78, "congruency": ["congruent"], "correct": true, "alignment": ["aligned"]}, {"rt": -1, "trial_type": "single-stim", "stimulus": "<div class = imageBox><img class = image src = img/line_images/8_target_01_01.png </img></div>", "trial_id": "target", "time_elapsed": 230668, "internal_node_id": "0.0-79.0", "key_press": -1, "trial_index": 79}, {"rt": -1, "trial_type": "single-stim", "stimulus": "<div class = imageBox><img class = image src = img/Pmask3.jpg </img></div>", "trial_id": "mask", "time_elapsed": 232082, "internal_node_id": "0.0-80.0", "key_press": -1, "trial_index": 80}, {"rt": -1, "trial_type": "single-stim", "stimulus": "<div class = imageBox><img class = image src = img/line_images/8_al_02_01.png </img></div>", "trial_id": "probe", "time_elapsed": 233285, "internal_node_id": "0.0-81.0", "key_press": -1, "trial_index": 81}, {"rt": 328, "trial_type": "single-stim", "stimulus": "<div class = centerbox style = text-align:center><p style = font-size:50px>Same or different? </p></div>", "trial_id": "response_line", "time_elapsed": 234616, "response": ["different"], "internal_node_id": "0.0-82.0", "key_press": 49, "trial_index": 82, "congruency": ["incongruent"], "correct": false, "alignment": ["aligned"]}, {"rt": -1, "trial_type": "single-stim", "stimulus": "<div class = imageBox><img class = image src = img/line_images/4_target_01_01.png </img></div>", "trial_id": "target", "time_elapsed": 235820, "internal_node_id": "0.0-83.0", "key_press": -1, "trial_index": 83}, {"rt": -1, "trial_type": "single-stim", "stimulus": "<div class = imageBox><img class = image src = img/Pmask5.jpg </img></div>", "trial_id": "mask", "time_elapsed": 237224, "internal_node_id": "0.0-84.0", "key_press": -1, "trial_index": 84}, {"rt": -1, "trial_type": "single-stim", "stimulus": "<div class = imageBox><img class = image src = img/line_images/4_al_01_02.png </img></div>", "trial_id": "probe", "time_elapsed": 238428, "internal_node_id": "0.0-85.0", "key_press": -1, "trial_index": 85}, {"rt": 360, "trial_type": "single-stim", "stimulus": "<div class = centerbox style = text-align:center><p style = font-size:50px>Same or different? </p></div>", "trial_id": "response_line", "time_elapsed": 239790, "response": ["same"], "internal_node_id": "0.0-86.0", "key_press": 49, "trial_index": 86, "congruency": ["incongruent"], "correct": true, "alignment": ["aligned"]}, {"rt": -1, "trial_type": "single-stim", "stimulus": "<div class = imageBox><img class = image src = img/line_images/4_target_01_01.png </img></div>", "trial_id": "target", "time_elapsed": 240994, "internal_node_id": "0.0-87.0", "key_press": -1, "trial_index": 87}, {"rt": -1, "trial_type": "single-stim", "stimulus": "<div class = imageBox><img class = image src = img/Pmask1.jpg </img></div>", "trial_id": "mask", "time_elapsed": 242398, "internal_node_id": "0.0-88.0", "key_press": -1, "trial_index": 88}, {"rt": -1, "trial_type": "single-stim", "stimulus": "<div class = imageBox><img class = image src = img/line_images/4_mis_01_01.png </img></div>", "trial_id": "probe", "time_elapsed": 243602, "internal_node_id": "0.0-89.0", "key_press": -1, "trial_index": 89}, {"rt": 1012, "trial_type": "single-stim", "stimulus": "<div class = centerbox style = text-align:center><p style = font-size:50px>Same or different? </p></div>", "trial_id": "response_line", "time_elapsed": 245618, "response": ["same"], "internal_node_id": "0.0-90.0", "key_press": 48, "trial_index": 90, "congruency": ["congruent"], "correct": false, "alignment": ["misaligned"]}, {"rt": -1, "trial_type": "single-stim", "stimulus": "<div class = imageBox><img class = image src = img/line_images/20_target_01_01.png </img></div>", "trial_id": "target", "time_elapsed": 246820, "internal_node_id": "0.0-91.0", "key_press": -1, "trial_index": 91}, {"rt": -1, "trial_type": "single-stim", "stimulus": "<div class = imageBox><img class = image src = img/Pmask3.jpg </img></div>", "trial_id": "mask", "time_elapsed": 248223, "internal_node_id": "0.0-92.0", "key_press": -1, "trial_index": 92}, {"rt": -1, "trial_type": "single-stim", "stimulus": "<div class = imageBox><img class = image src = img/line_images/20_al_02_01.png </img></div>", "trial_id": "probe", "time_elapsed": 249426, "internal_node_id": "0.0-93.0", "key_press": -1, "trial_index": 93}, {"rt": 922, "trial_type": "single-stim", "stimulus": "<div class = centerbox style = text-align:center><p style = font-size:50px>Same or different? </p></div>", "trial_id": "response_line", "time_elapsed": 251351, "response": ["different"], "internal_node_id": "0.0-94.0", "key_press": 49, "trial_index": 94, "congruency": ["incongruent"], "correct": false, "alignment": ["aligned"]}, {"rt": -1, "trial_type": "single-stim", "stimulus": "<div class = imageBox><img class = image src = img/line_images/16_target_01_01.png </img></div>", "trial_id": "target", "time_elapsed": 252555, "internal_node_id": "0.0-95.0", "key_press": -1, "trial_index": 95}, {"rt": -1, "trial_type": "single-stim", "stimulus": "<div class = imageBox><img class = image src = img/Pmask1.jpg </img></div>", "trial_id": "mask", "time_elapsed": 253966, "internal_node_id": "0.0-96.0", "key_press": -1, "trial_index": 96}, {"rt": -1, "trial_type": "single-stim", "stimulus": "<div class = imageBox><img class = image src = img/line_images/16_al_01_01.png </img></div>", "trial_id": "probe", "time_elapsed": 255168, "internal_node_id": "0.0-97.0", "key_press": -1, "trial_index": 97}, {"rt": 374, "trial_type": "single-stim", "stimulus": "<div class = centerbox style = text-align:center><p style = font-size:50px>Same or different? </p></div>", "trial_id": "response_line", "time_elapsed": 256545, "response": ["same"], "internal_node_id": "0.0-98.0", "key_press": 48, "trial_index": 98, "congruency": ["congruent"], "correct": false, "alignment": ["aligned"]}, {"rt": -1, "trial_type": "single-stim", "stimulus": "<div class = imageBox><img class = image src = img/line_images/18_target_01_01.png </img></div>", "trial_id": "target", "time_elapsed": 257753, "internal_node_id": "0.0-99.0", "key_press": -1, "trial_index": 99}, {"rt": -1, "trial_type": "single-stim", "stimulus": "<div class = imageBox><img class = image src = img/Pmask1.jpg </img></div>", "trial_id": "mask", "time_elapsed": 259155, "internal_node_id": "0.0-100.0", "key_press": -1, "trial_index": 100}, {"rt": -1, "trial_type": "single-stim", "stimulus": "<div class = imageBox><img class = image src = img/line_images/18_mis_01_02.png </img></div>", "trial_id": "probe", "time_elapsed": 260358, "internal_node_id": "0.0-101.0", "key_press": -1, "trial_index": 101}, {"rt": 567, "trial_type": "single-stim", "stimulus": "<div class = centerbox style = text-align:center><p style = font-size:50px>Same or different? </p></div>", "trial_id": "response_line", "time_elapsed": 261927, "response": ["same"], "internal_node_id": "0.0-102.0", "key_press": 48, "trial_index": 102, "congruency": ["incongruent"], "correct": false, "alignment": ["misaligned"]}, {"rt": -1, "trial_type": "single-stim", "stimulus": "<div class = imageBox><img class = image src = img/line_images/17_target_01_01.png </img></div>", "trial_id": "target", "time_elapsed": 263130, "internal_node_id": "0.0-103.0", "key_press": -1, "trial_index": 103}, {"rt": -1, "trial_type": "single-stim", "stimulus": "<div class = imageBox><img class = image src = img/Pmask5.jpg </img></div>", "trial_id": "mask", "time_elapsed": 264534, "internal_node_id": "0.0-104.0", "key_press": -1, "trial_index": 104}, {"rt": -1, "trial_type": "single-stim", "stimulus": "<div class = imageBox><img class = image src = img/line_images/17_mis_01_02.png </img></div>", "trial_id": "probe", "time_elapsed": 265738, "internal_node_id": "0.0-105.0", "key_press": -1, "trial_index": 105}, {"rt": 357, "trial_type": "single-stim", "stimulus": "<div class = centerbox style = text-align:center><p style = font-size:50px>Same or different? </p></div>", "trial_id": "response_line", "time_elapsed": 267098, "response": ["same"], "internal_node_id": "0.0-106.0", "key_press": 49, "trial_index": 106, "congruency": ["incongruent"], "correct": true, "alignment": ["misaligned"]}, {"rt": -1, "trial_type": "single-stim", "stimulus": "<div class = imageBox><img class = image src = img/line_images/6_target_01_01.png </img></div>", "trial_id": "target", "time_elapsed": 268301, "internal_node_id": "0.0-107.0", "key_press": -1, "trial_index": 107}, {"rt": -1, "trial_type": "single-stim", "stimulus": "<div class = imageBox><img class = image src = img/Pmask1.jpg </img></div>", "trial_id": "mask", "time_elapsed": 269707, "internal_node_id": "0.0-108.0", "key_press": -1, "trial_index": 108}, {"rt": -1, "trial_type": "single-stim", "stimulus": "<div class = imageBox><img class = image src = img/line_images/6_mis_01_02.png </img></div>", "trial_id": "probe", "time_elapsed": 270911, "internal_node_id": "0.0-109.0", "key_press": -1, "trial_index": 109}, {"rt": 421, "trial_type": "single-stim", "stimulus": "<div class = centerbox style = text-align:center><p style = font-size:50px>Same or different? </p></div>", "trial_id": "response_line", "time_elapsed": 272334, "response": ["same"], "internal_node_id": "0.0-110.0", "key_press": 48, "trial_index": 110, "congruency": ["incongruent"], "correct": false, "alignment": ["misaligned"]}, {"rt": -1, "trial_type": "single-stim", "stimulus": "<div class = imageBox><img class = image src = img/line_images/14_target_01_01.png </img></div>", "trial_id": "target", "time_elapsed": 273538, "internal_node_id": "0.0-111.0", "key_press": -1, "trial_index": 111}, {"rt": -1, "trial_type": "single-stim", "stimulus": "<div class = imageBox><img class = image src = img/Pmask1.jpg </img></div>", "trial_id": "mask", "time_elapsed": 274942, "internal_node_id": "0.0-112.0", "key_press": -1, "trial_index": 112}, {"rt": -1, "trial_type": "single-stim", "stimulus": "<div class = imageBox><img class = image src = img/line_images/14_mis_01_01.png </img></div>", "trial_id": "probe", "time_elapsed": 276146, "internal_node_id": "0.0-113.0", "key_press": -1, "trial_index": 113}, {"rt": 539, "trial_type": "single-stim", "stimulus": "<div class = centerbox style = text-align:center><p style = font-size:50px>Same or different? </p></div>", "trial_id": "response_line", "time_elapsed": 277689, "response": ["same"], "internal_node_id": "0.0-114.0", "key_press": 49, "trial_index": 114, "congruency": ["congruent"], "correct": true, "alignment": ["misaligned"]}, {"rt": -1, "trial_type": "single-stim", "stimulus": "<div class = imageBox><img class = image src = img/line_images/8_target_01_01.png </img></div>", "trial_id": "target", "time_elapsed": 278893, "internal_node_id": "0.0-115.0", "key_press": -1, "trial_index": 115}, {"rt": -1, "trial_type": "single-stim", "stimulus": "<div class = imageBox><img class = image src = img/Pmask1.jpg </img></div>", "trial_id": "mask", "time_elapsed": 280297, "internal_node_id": "0.0-116.0", "key_press": -1, "trial_index": 116}, {"rt": -1, "trial_type": "single-stim", "stimulus": "<div class = imageBox><img class = image src = img/line_images/8_mis_01_01.png </img></div>", "trial_id": "probe", "time_elapsed": 281508, "internal_node_id": "0.0-117.0", "key_press": -1, "trial_index": 117}, {"rt": 431, "trial_type": "single-stim", "stimulus": "<div class = centerbox style = text-align:center><p style = font-size:50px>Same or different? </p></div>", "trial_id": "response_line", "time_elapsed": 282942, "response": ["same"], "internal_node_id": "0.0-118.0", "key_press": 49, "trial_index": 118, "congruency": ["congruent"], "correct": true, "alignment": ["misaligned"]}, {"rt": -1, "trial_type": "single-stim", "stimulus": "<div class = imageBox><img class = image src = img/line_images/3_target_01_01.png </img></div>", "trial_id": "target", "time_elapsed": 284146, "internal_node_id": "0.0-119.0", "key_press": -1, "trial_index": 119}, {"rt": -1, "trial_type": "single-stim", "stimulus": "<div class = imageBox><img class = image src = img/Pmask1.jpg </img></div>", "trial_id": "mask", "time_elapsed": 285552, "internal_node_id": "0.0-120.0", "key_press": -1, "trial_index": 120}, {"rt": -1, "trial_type": "single-stim", "stimulus": "<div class = imageBox><img class = image src = img/line_images/3_mis_01_02.png </img></div>", "trial_id": "probe", "time_elapsed": 286757, "internal_node_id": "0.0-121.0", "key_press": -1, "trial_index": 121}, {"rt": 337, "trial_type": "single-stim", "stimulus": "<div class = centerbox style = text-align:center><p style = font-size:50px>Same or different? </p></div>", "trial_id": "response_line", "time_elapsed": 288097, "response": ["same"], "internal_node_id": "0.0-122.0", "key_press": 49, "trial_index": 122, "congruency": ["incongruent"], "correct": true, "alignment": ["misaligned"]}, {"rt": -1, "trial_type": "single-stim", "stimulus": "<div class = imageBox><img class = image src = img/line_images/19_target_01_01.png </img></div>", "trial_id": "target", "time_elapsed": 289300, "internal_node_id": "0.0-123.0", "key_press": -1, "trial_index": 123}, {"rt": -1, "trial_type": "single-stim", "stimulus": "<div class = imageBox><img class = image src = img/Pmask2.jpg </img></div>", "trial_id": "mask", "time_elapsed": 290703, "internal_node_id": "0.0-124.0", "key_press": -1, "trial_index": 124}, {"rt": -1, "trial_type": "single-stim", "stimulus": "<div class = imageBox><img class = image src = img/line_images/19_al_02_01.png </img></div>", "trial_id": "probe", "time_elapsed": 291906, "internal_node_id": "0.0-125.0", "key_press": -1, "trial_index": 125}, {"rt": 529, "trial_type": "single-stim", "stimulus": "<div class = centerbox style = text-align:center><p style = font-size:50px>Same or different? </p></div>", "trial_id": "response_line", "time_elapsed": 293439, "response": ["different"], "internal_node_id": "0.0-126.0", "key_press": 48, "trial_index": 126, "congruency": ["incongruent"], "correct": true, "alignment": ["aligned"]}, {"rt": -1, "trial_type": "single-stim", "stimulus": "<div class = imageBox><img class = image src = img/line_images/1_target_01_01.png </img></div>", "trial_id": "target", "time_elapsed": 294644, "internal_node_id": "0.0-127.0", "key_press": -1, "trial_index": 127}, {"rt": -1, "trial_type": "single-stim", "stimulus": "<div class = imageBox><img class = image src = img/Pmask1.jpg </img></div>", "trial_id": "mask", "time_elapsed": 296047, "internal_node_id": "0.0-128.0", "key_press": -1, "trial_index": 128}, {"rt": -1, "trial_type": "single-stim", "stimulus": "<div class = imageBox><img class = image src = img/line_images/1_al_02_01.png </img></div>", "trial_id": "probe", "time_elapsed": 297251, "internal_node_id": "0.0-129.0", "key_press": -1, "trial_index": 129}, {"rt": 490, "trial_type": "single-stim", "stimulus": "<div class = centerbox style = text-align:center><p style = font-size:50px>Same or different? </p></div>", "trial_id": "response_line", "time_elapsed": 298745, "response": ["different"], "internal_node_id": "0.0-130.0", "key_press": 48, "trial_index": 130, "congruency": ["incongruent"], "correct": true, "alignment": ["aligned"]}, {"rt": -1, "trial_type": "single-stim", "stimulus": "<div class = imageBox><img class = image src = img/line_images/15_target_01_01.png </img></div>", "trial_id": "target", "time_elapsed": 299951, "internal_node_id": "0.0-131.0", "key_press": -1, "trial_index": 131}, {"rt": -1, "trial_type": "single-stim", "stimulus": "<div class = imageBox><img class = image src = img/Pmask3.jpg </img></div>", "trial_id": "mask", "time_elapsed": 301357, "internal_node_id": "0.0-132.0", "key_press": -1, "trial_index": 132}, {"rt": -1, "trial_type": "single-stim", "stimulus": "<div class = imageBox><img class = image src = img/line_images/15_al_01_02.png </img></div>", "trial_id": "probe", "time_elapsed": 302561, "internal_node_id": "0.0-133.0", "key_press": -1, "trial_index": 133}, {"rt": 1594, "trial_type": "single-stim", "stimulus": "<div class = centerbox style = text-align:center><p style = font-size:50px>Same or different? </p></div>", "trial_id": "response_line", "time_elapsed": 305159, "response": ["same"], "internal_node_id": "0.0-134.0", "key_press": 48, "trial_index": 134, "congruency": ["incongruent"], "correct": false, "alignment": ["aligned"]}, {"rt": -1, "trial_type": "single-stim", "stimulus": "<div class = imageBox><img class = image src = img/line_images/11_target_01_01.png </img></div>", "trial_id": "target", "time_elapsed": 306361, "internal_node_id": "0.0-135.0", "key_press": -1, "trial_index": 135}, {"rt": -1, "trial_type": "single-stim", "stimulus": "<div class = imageBox><img class = image src = img/Pmask1.jpg </img></div>", "trial_id": "mask", "time_elapsed": 307767, "internal_node_id": "0.0-136.0", "key_press": -1, "trial_index": 136}, {"rt": -1, "trial_type": "single-stim", "stimulus": "<div class = imageBox><img class = image src = img/line_images/11_al_01_01.png </img></div>", "trial_id": "probe", "time_elapsed": 308969, "internal_node_id": "0.0-137.0", "key_press": -1, "trial_index": 137}, {"rt": 940, "trial_type": "single-stim", "stimulus": "<div class = centerbox style = text-align:center><p style = font-size:50px>Same or different? </p></div>", "trial_id": "response_line", "time_elapsed": 310912, "response": ["same"], "internal_node_id": "0.0-138.0", "key_press": 49, "trial_index": 138, "congruency": ["congruent"], "correct": true, "alignment": ["aligned"]}, {"rt": -1, "trial_type": "single-stim", "stimulus": "<div class = imageBox><img class = image src = img/line_images/7_target_01_01.png </img></div>", "trial_id": "target", "time_elapsed": 312114, "internal_node_id": "0.0-139.0", "key_press": -1, "trial_index": 139}, {"rt": -1, "trial_type": "single-stim", "stimulus": "<div class = imageBox><img class = image src = img/Pmask4.jpg </img></div>", "trial_id": "mask", "time_elapsed": 313518, "internal_node_id": "0.0-140.0", "key_press": -1, "trial_index": 140}, {"rt": -1, "trial_type": "single-stim", "stimulus": "<div class = imageBox><img class = image src = img/line_images/7_al_02_02.png </img></div>", "trial_id": "probe", "time_elapsed": 314722, "internal_node_id": "0.0-141.0", "key_press": -1, "trial_index": 141}, {"rt": 387, "trial_type": "single-stim", "stimulus": "<div class = centerbox style = text-align:center><p style = font-size:50px>Same or different? </p></div>", "trial_id": "response_line", "time_elapsed": 316111, "response": ["different"], "internal_node_id": "0.0-142.0", "key_press": 48, "trial_index": 142, "congruency": ["congruent"], "correct": true, "alignment": ["aligned"]}, {"rt": -1, "trial_type": "single-stim", "stimulus": "<div class = imageBox><img class = image src = img/line_images/10_target_01_01.png </img></div>", "trial_id": "target", "time_elapsed": 317314, "internal_node_id": "0.0-143.0", "key_press": -1, "trial_index": 143}, {"rt": -1, "trial_type": "single-stim", "stimulus": "<div class = imageBox><img class = image src = img/Pmask4.jpg </img></div>", "trial_id": "mask", "time_elapsed": 318721, "internal_node_id": "0.0-144.0", "key_press": -1, "trial_index": 144}, {"rt": -1, "trial_type": "single-stim", "stimulus": "<div class = imageBox><img class = image src = img/line_images/10_al_01_02.png </img></div>", "trial_id": "probe", "time_elapsed": 319924, "internal_node_id": "0.0-145.0", "key_press": -1, "trial_index": 145}, {"rt": 467, "trial_type": "single-stim", "stimulus": "<div class = centerbox style = text-align:center><p style = font-size:50px>Same or different? </p></div>", "trial_id": "response_line", "time_elapsed": 321393, "response": ["same"], "internal_node_id": "0.0-146.0", "key_press": 48, "trial_index": 146, "congruency": ["incongruent"], "correct": false, "alignment": ["aligned"]}, {"rt": -1, "trial_type": "single-stim", "stimulus": "<div class = imageBox><img class = image src = img/line_images/11_target_01_01.png </img></div>", "trial_id": "target", "time_elapsed": 322596, "internal_node_id": "0.0-147.0", "key_press": -1, "trial_index": 147}, {"rt": -1, "trial_type": "single-stim", "stimulus": "<div class = imageBox><img class = image src = img/Pmask5.jpg </img></div>", "trial_id": "mask", "time_elapsed": 323999, "internal_node_id": "0.0-148.0", "key_press": -1, "trial_index": 148}, {"rt": -1, "trial_type": "single-stim", "stimulus": "<div class = imageBox><img class = image src = img/line_images/11_mis_02_01.png </img></div>", "trial_id": "probe", "time_elapsed": 325201, "internal_node_id": "0.0-149.0", "key_press": -1, "trial_index": 149}, {"rt": 291, "trial_type": "single-stim", "stimulus": "<div class = centerbox style = text-align:center><p style = font-size:50px>Same or different? </p></div>", "trial_id": "response_line", "time_elapsed": 326495, "response": ["different"], "internal_node_id": "0.0-150.0", "key_press": 49, "trial_index": 150, "congruency": ["incongruent"], "correct": false, "alignment": ["misaligned"]}, {"rt": -1, "trial_type": "single-stim", "stimulus": "<div class = imageBox><img class = image src = img/line_images/3_target_01_01.png </img></div>", "trial_id": "target", "time_elapsed": 327699, "internal_node_id": "0.0-151.0", "key_press": -1, "trial_index": 151}, {"rt": -1, "trial_type": "single-stim", "stimulus": "<div class = imageBox><img class = image src = img/Pmask3.jpg </img></div>", "trial_id": "mask", "time_elapsed": 329103, "internal_node_id": "0.0-152.0", "key_press": -1, "trial_index": 152}, {"rt": -1, "trial_type": "single-stim", "stimulus": "<div class = imageBox><img class = image src = img/line_images/3_mis_02_02.png </img></div>", "trial_id": "probe", "time_elapsed": 330310, "internal_node_id": "0.0-153.0", "key_press": -1, "trial_index": 153}, {"rt": 346, "trial_type": "single-stim", "stimulus": "<div class = centerbox style = text-align:center><p style = font-size:50px>Same or different? </p></div>", "trial_id": "response_line", "time_elapsed": 331658, "response": ["different"], "internal_node_id": "0.0-154.0", "key_press": 48, "trial_index": 154, "congruency": ["congruent"], "correct": true, "alignment": ["misaligned"]}, {"rt": -1, "trial_type": "single-stim", "stimulus": "<div class = imageBox><img class = image src = img/line_images/8_target_01_01.png </img></div>", "trial_id": "target", "time_elapsed": 332861, "internal_node_id": "0.0-155.0", "key_press": -1, "trial_index": 155}, {"rt": -1, "trial_type": "single-stim", "stimulus": "<div class = imageBox><img class = image src = img/Pmask5.jpg </img></div>", "trial_id": "mask", "time_elapsed": 334269, "internal_node_id": "0.0-156.0", "key_press": -1, "trial_index": 156}, {"rt": -1, "trial_type": "single-stim", "stimulus": "<div class = imageBox><img class = image src = img/line_images/8_al_01_02.png </img></div>", "trial_id": "probe", "time_elapsed": 335472, "internal_node_id": "0.0-157.0", "key_press": -1, "trial_index": 157}, {"rt": 361, "trial_type": "single-stim", "stimulus": "<div class = centerbox style = text-align:center><p style = font-size:50px>Same or different? </p></div>", "trial_id": "response_line", "time_elapsed": 336838, "response": ["same"], "internal_node_id": "0.0-158.0", "key_press": 49, "trial_index": 158, "congruency": ["incongruent"], "correct": true, "alignment": ["aligned"]}, {"rt": -1, "trial_type": "single-stim", "stimulus": "<div class = imageBox><img class = image src = img/line_images/1_target_01_01.png </img></div>", "trial_id": "target", "time_elapsed": 338042, "internal_node_id": "0.0-159.0", "key_press": -1, "trial_index": 159}, {"rt": -1, "trial_type": "single-stim", "stimulus": "<div class = imageBox><img class = image src = img/Pmask4.jpg </img></div>", "trial_id": "mask", "time_elapsed": 339445, "internal_node_id": "0.0-160.0", "key_press": -1, "trial_index": 160}, {"rt": -1, "trial_type": "single-stim", "stimulus": "<div class = imageBox><img class = image src = img/line_images/1_mis_01_01.png </img></div>", "trial_id": "probe", "time_elapsed": 340648, "internal_node_id": "0.0-161.0", "key_press": -1, "trial_index": 161}, {"rt": 497, "trial_type": "single-stim", "stimulus": "<div class = centerbox style = text-align:center><p style = font-size:50px>Same or different? </p></div>", "trial_id": "response_line", "time_elapsed": 342152, "response": ["same"], "internal_node_id": "0.0-162.0", "key_press": 49, "trial_index": 162, "congruency": ["congruent"], "correct": true, "alignment": ["misaligned"]}, {"rt": -1, "trial_type": "single-stim", "stimulus": "<div class = imageBox><img class = image src = img/line_images/2_target_01_01.png </img></div>", "trial_id": "target", "time_elapsed": 343356, "internal_node_id": "0.0-163.0", "key_press": -1, "trial_index": 163}, {"rt": -1, "trial_type": "single-stim", "stimulus": "<div class = imageBox><img class = image src = img/Pmask5.jpg </img></div>", "trial_id": "mask", "time_elapsed": 344759, "internal_node_id": "0.0-164.0", "key_press": -1, "trial_index": 164}, {"rt": -1, "trial_type": "single-stim", "stimulus": "<div class = imageBox><img class = image src = img/line_images/2_mis_01_01.png </img></div>", "trial_id": "probe", "time_elapsed": 345962, "internal_node_id": "0.0-165.0", "key_press": -1, "trial_index": 165}, {"rt": 362, "trial_type": "single-stim", "stimulus": "<div class = centerbox style = text-align:center><p style = font-size:50px>Same or different? </p></div>", "trial_id": "response_line", "time_elapsed": 347326, "response": ["same"], "internal_node_id": "0.0-166.0", "key_press": 49, "trial_index": 166, "congruency": ["congruent"], "correct": true, "alignment": ["misaligned"]}, {"rt": -1, "trial_type": "single-stim", "stimulus": "<div class = imageBox><img class = image src = img/line_images/10_target_01_01.png </img></div>", "trial_id": "target", "time_elapsed": 348529, "internal_node_id": "0.0-167.0", "key_press": -1, "trial_index": 167}, {"rt": -1, "trial_type": "single-stim", "stimulus": "<div class = imageBox><img class = image src = img/Pmask4.jpg </img></div>", "trial_id": "mask", "time_elapsed": 349933, "internal_node_id": "0.0-168.0", "key_press": -1, "trial_index": 168}, {"rt": -1, "trial_type": "single-stim", "stimulus": "<div class = imageBox><img class = image src = img/line_images/10_al_02_01.png </img></div>", "trial_id": "probe", "time_elapsed": 351137, "internal_node_id": "0.0-169.0", "key_press": -1, "trial_index": 169}, {"rt": 299, "trial_type": "single-stim", "stimulus": "<div class = centerbox style = text-align:center><p style = font-size:50px>Same or different? </p></div>", "trial_id": "response_line", "time_elapsed": 352439, "response": ["different"], "internal_node_id": "0.0-170.0", "key_press": 48, "trial_index": 170, "congruency": ["incongruent"], "correct": true, "alignment": ["aligned"]}, {"rt": -1, "trial_type": "single-stim", "stimulus": "<div class = imageBox><img class = image src = img/line_images/13_target_01_01.png </img></div>", "trial_id": "target", "time_elapsed": 353643, "internal_node_id": "0.0-171.0", "key_press": -1, "trial_index": 171}, {"rt": -1, "trial_type": "single-stim", "stimulus": "<div class = imageBox><img class = image src = img/Pmask5.jpg </img></div>", "trial_id": "mask", "time_elapsed": 355046, "internal_node_id": "0.0-172.0", "key_press": -1, "trial_index": 172}, {"rt": -1, "trial_type": "single-stim", "stimulus": "<div class = imageBox><img class = image src = img/line_images/13_mis_02_01.png </img></div>", "trial_id": "probe", "time_elapsed": 356249, "internal_node_id": "0.0-173.0", "key_press": -1, "trial_index": 173}, {"rt": 434, "trial_type": "single-stim", "stimulus": "<div class = centerbox style = text-align:center><p style = font-size:50px>Same or different? </p></div>", "trial_id": "response_line", "time_elapsed": 357687, "response": ["different"], "internal_node_id": "0.0-174.0", "key_press": 48, "trial_index": 174, "congruency": ["incongruent"], "correct": true, "alignment": ["misaligned"]}, {"rt": -1, "trial_type": "single-stim", "stimulus": "<div class = imageBox><img class = image src = img/line_images/1_target_01_01.png </img></div>", "trial_id": "target", "time_elapsed": 358891, "internal_node_id": "0.0-175.0", "key_press": -1, "trial_index": 175}, {"rt": -1, "trial_type": "single-stim", "stimulus": "<div class = imageBox><img class = image src = img/Pmask1.jpg </img></div>", "trial_id": "mask", "time_elapsed": 360295, "internal_node_id": "0.0-176.0", "key_press": -1, "trial_index": 176}, {"rt": -1, "trial_type": "single-stim", "stimulus": "<div class = imageBox><img class = image src = img/line_images/1_al_02_02.png </img></div>", "trial_id": "probe", "time_elapsed": 361498, "internal_node_id": "0.0-177.0", "key_press": -1, "trial_index": 177}, {"rt": 356, "trial_type": "single-stim", "stimulus": "<div class = centerbox style = text-align:center><p style = font-size:50px>Same or different? </p></div>", "trial_id": "response_line", "time_elapsed": 362856, "response": ["different"], "internal_node_id": "0.0-178.0", "key_press": 48, "trial_index": 178, "congruency": ["congruent"], "correct": true, "alignment": ["aligned"]}, {"rt": -1, "trial_type": "single-stim", "stimulus": "<div class = imageBox><img class = image src = img/line_images/19_target_01_01.png </img></div>", "trial_id": "target", "time_elapsed": 364061, "internal_node_id": "0.0-179.0", "key_press": -1, "trial_index": 179}, {"rt": -1, "trial_type": "single-stim", "stimulus": "<div class = imageBox><img class = image src = img/Pmask4.jpg </img></div>", "trial_id": "mask", "time_elapsed": 365464, "internal_node_id": "0.0-180.0", "key_press": -1, "trial_index": 180}, {"rt": -1, "trial_type": "single-stim", "stimulus": "<div class = imageBox><img class = image src = img/line_images/19_mis_02_02.png </img></div>", "trial_id": "probe", "time_elapsed": 366666, "internal_node_id": "0.0-181.0", "key_press": -1, "trial_index": 181}, {"rt": 373, "trial_type": "single-stim", "stimulus": "<div class = centerbox style = text-align:center><p style = font-size:50px>Same or different? </p></div>", "trial_id": "response_line", "time_elapsed": 368046, "response": ["different"], "internal_node_id": "0.0-182.0", "key_press": 48, "trial_index": 182, "congruency": ["congruent"], "correct": true, "alignment": ["misaligned"]}, {"rt": -1, "trial_type": "single-stim", "stimulus": "<div class = imageBox><img class = image src = img/line_images/18_target_01_01.png </img></div>", "trial_id": "target", "time_elapsed": 369253, "internal_node_id": "0.0-183.0", "key_press": -1, "trial_index": 183}, {"rt": -1, "trial_type": "single-stim", "stimulus": "<div class = imageBox><img class = image src = img/Pmask4.jpg </img></div>", "trial_id": "mask", "time_elapsed": 370656, "internal_node_id": "0.0-184.0", "key_press": -1, "trial_index": 184}, {"rt": -1, "trial_type": "single-stim", "stimulus": "<div class = imageBox><img class = image src = img/line_images/18_mis_01_01.png </img></div>", "trial_id": "probe", "time_elapsed": 371860, "internal_node_id": "0.0-185.0", "key_press": -1, "trial_index": 185}, {"rt": 337, "trial_type": "single-stim", "stimulus": "<div class = centerbox style = text-align:center><p style = font-size:50px>Same or different? </p></div>", "trial_id": "response_line", "time_elapsed": 373201, "response": ["same"], "internal_node_id": "0.0-186.0", "key_press": 49, "trial_index": 186, "congruency": ["congruent"], "correct": true, "alignment": ["misaligned"]}, {"rt": -1, "trial_type": "single-stim", "stimulus": "<div class = imageBox><img class = image src = img/line_images/10_target_01_01.png </img></div>", "trial_id": "target", "time_elapsed": 374404, "internal_node_id": "0.0-187.0", "key_press": -1, "trial_index": 187}, {"rt": -1, "trial_type": "single-stim", "stimulus": "<div class = imageBox><img class = image src = img/Pmask5.jpg </img></div>", "trial_id": "mask", "time_elapsed": 375808, "internal_node_id": "0.0-188.0", "key_press": -1, "trial_index": 188}, {"rt": -1, "trial_type": "single-stim", "stimulus": "<div class = imageBox><img class = image src = img/line_images/10_mis_01_01.png </img></div>", "trial_id": "probe", "time_elapsed": 377011, "internal_node_id": "0.0-189.0", "key_press": -1, "trial_index": 189}, {"rt": 809, "trial_type": "single-stim", "stimulus": "<div class = centerbox style = text-align:center><p style = font-size:50px>Same or different? </p></div>", "trial_id": "response_line", "time_elapsed": 378822, "response": ["same"], "internal_node_id": "0.0-190.0", "key_press": 49, "trial_index": 190, "congruency": ["congruent"], "correct": true, "alignment": ["misaligned"]}, {"rt": -1, "trial_type": "single-stim", "stimulus": "<div class = imageBox><img class = image src = img/line_images/7_target_01_01.png </img></div>", "trial_id": "target", "time_elapsed": 380027, "internal_node_id": "0.0-191.0", "key_press": -1, "trial_index": 191}, {"rt": -1, "trial_type": "single-stim", "stimulus": "<div class = imageBox><img class = image src = img/Pmask4.jpg </img></div>", "trial_id": "mask", "time_elapsed": 381430, "internal_node_id": "0.0-192.0", "key_press": -1, "trial_index": 192}, {"rt": -1, "trial_type": "single-stim", "stimulus": "<div class = imageBox><img class = image src = img/line_images/7_al_01_01.png </img></div>", "trial_id": "probe", "time_elapsed": 382633, "internal_node_id": "0.0-193.0", "key_press": -1, "trial_index": 193}, {"rt": 1350, "trial_type": "single-stim", "stimulus": "<div class = centerbox style = text-align:center><p style = font-size:50px>Same or different? </p></div>", "trial_id": "response_line", "time_elapsed": 384986, "response": ["same"], "internal_node_id": "0.0-194.0", "key_press": 48, "trial_index": 194, "congruency": ["congruent"], "correct": false, "alignment": ["aligned"]}, {"rt": -1, "trial_type": "single-stim", "stimulus": "<div class = imageBox><img class = image src = img/line_images/15_target_01_01.png </img></div>", "trial_id": "target", "time_elapsed": 386190, "internal_node_id": "0.0-195.0", "key_press": -1, "trial_index": 195}, {"rt": -1, "trial_type": "single-stim", "stimulus": "<div class = imageBox><img class = image src = img/Pmask1.jpg </img></div>", "trial_id": "mask", "time_elapsed": 387594, "internal_node_id": "0.0-196.0", "key_press": -1, "trial_index": 196}, {"rt": -1, "trial_type": "single-stim", "stimulus": "<div class = imageBox><img class = image src = img/line_images/15_mis_02_01.png </img></div>", "trial_id": "probe", "time_elapsed": 388799, "internal_node_id": "0.0-197.0", "key_press": -1, "trial_index": 197}, {"rt": 444, "trial_type": "single-stim", "stimulus": "<div class = centerbox style = text-align:center><p style = font-size:50px>Same or different? </p></div>", "trial_id": "response_line", "time_elapsed": 390246, "response": ["different"], "internal_node_id": "0.0-198.0", "key_press": 49, "trial_index": 198, "congruency": ["incongruent"], "correct": false, "alignment": ["misaligned"]}, {"rt": -1, "trial_type": "single-stim", "stimulus": "<div class = imageBox><img class = image src = img/line_images/11_target_01_01.png </img></div>", "trial_id": "target", "time_elapsed": 391451, "internal_node_id": "0.0-199.0", "key_press": -1, "trial_index": 199}, {"rt": -1, "trial_type": "single-stim", "stimulus": "<div class = imageBox><img class = image src = img/Pmask3.jpg </img></div>", "trial_id": "mask", "time_elapsed": 392862, "internal_node_id": "0.0-200.0", "key_press": -1, "trial_index": 200}, {"rt": -1, "trial_type": "single-stim", "stimulus": "<div class = imageBox><img class = image src = img/line_images/11_al_02_01.png </img></div>", "trial_id": "probe", "time_elapsed": 394074, "internal_node_id": "0.0-201.0", "key_press": -1, "trial_index": 201}, {"rt": 420, "trial_type": "single-stim", "stimulus": "<div class = centerbox style = text-align:center><p style = font-size:50px>Same or different? </p></div>", "trial_id": "response_line", "time_elapsed": 395498, "response": ["different"], "internal_node_id": "0.0-202.0", "key_press": 48, "trial_index": 202, "congruency": ["incongruent"], "correct": true, "alignment": ["aligned"]}, {"rt": -1, "trial_type": "single-stim", "stimulus": "<div class = imageBox><img class = image src = img/line_images/9_target_01_01.png </img></div>", "trial_id": "target", "time_elapsed": 396703, "internal_node_id": "0.0-203.0", "key_press": -1, "trial_index": 203}, {"rt": -1, "trial_type": "single-stim", "stimulus": "<div class = imageBox><img class = image src = img/Pmask1.jpg </img></div>", "trial_id": "mask", "time_elapsed": 398107, "internal_node_id": "0.0-204.0", "key_press": -1, "trial_index": 204}, {"rt": -1, "trial_type": "single-stim", "stimulus": "<div class = imageBox><img class = image src = img/line_images/9_mis_01_02.png </img></div>", "trial_id": "probe", "time_elapsed": 399310, "internal_node_id": "0.0-205.0", "key_press": -1, "trial_index": 205}, {"rt": 541, "trial_type": "single-stim", "stimulus": "<div class = centerbox style = text-align:center><p style = font-size:50px>Same or different? </p></div>", "trial_id": "response_line", "time_elapsed": 400854, "response": ["same"], "internal_node_id": "0.0-206.0", "key_press": 49, "trial_index": 206, "congruency": ["incongruent"], "correct": true, "alignment": ["misaligned"]}, {"rt": -1, "trial_type": "single-stim", "stimulus": "<div class = imageBox><img class = image src = img/line_images/11_target_01_01.png </img></div>", "trial_id": "target", "time_elapsed": 402059, "internal_node_id": "0.0-207.0", "key_press": -1, "trial_index": 207}, {"rt": -1, "trial_type": "single-stim", "stimulus": "<div class = imageBox><img class = image src = img/Pmask3.jpg </img></div>", "trial_id": "mask", "time_elapsed": 403462, "internal_node_id": "0.0-208.0", "key_press": -1, "trial_index": 208}, {"rt": -1, "trial_type": "single-stim", "stimulus": "<div class = imageBox><img class = image src = img/line_images/11_al_01_02.png </img></div>", "trial_id": "probe", "time_elapsed": 404669, "internal_node_id": "0.0-209.0", "key_press": -1, "trial_index": 209}, {"rt": 505, "trial_type": "single-stim", "stimulus": "<div class = centerbox style = text-align:center><p style = font-size:50px>Same or different? </p></div>", "trial_id": "response_line", "time_elapsed": 406178, "response": ["same"], "internal_node_id": "0.0-210.0", "key_press": 48, "trial_index": 210, "congruency": ["incongruent"], "correct": false, "alignment": ["aligned"]}, {"rt": -1, "trial_type": "single-stim", "stimulus": "<div class = imageBox><img class = image src = img/line_images/3_target_01_01.png </img></div>", "trial_id": "target", "time_elapsed": 407383, "internal_node_id": "0.0-211.0", "key_press": -1, "trial_index": 211}, {"rt": -1, "trial_type": "single-stim", "stimulus": "<div class = imageBox><img class = image src = img/Pmask3.jpg </img></div>", "trial_id": "mask", "time_elapsed": 408786, "internal_node_id": "0.0-212.0", "key_press": -1, "trial_index": 212}, {"rt": -1, "trial_type": "single-stim", "stimulus": "<div class = imageBox><img class = image src = img/line_images/3_al_02_02.png </img></div>", "trial_id": "probe", "time_elapsed": 409991, "internal_node_id": "0.0-213.0", "key_press": -1, "trial_index": 213}, {"rt": 580, "trial_type": "single-stim", "stimulus": "<div class = centerbox style = text-align:center><p style = font-size:50px>Same or different? </p></div>", "trial_id": "response_line", "time_elapsed": 411574, "response": ["different"], "internal_node_id": "0.0-214.0", "key_press": 49, "trial_index": 214, "congruency": ["congruent"], "correct": false, "alignment": ["aligned"]}, {"rt": -1, "trial_type": "single-stim", "stimulus": "<div class = imageBox><img class = image src = img/line_images/6_target_01_01.png </img></div>", "trial_id": "target", "time_elapsed": 412778, "internal_node_id": "0.0-215.0", "key_press": -1, "trial_index": 215}, {"rt": -1, "trial_type": "single-stim", "stimulus": "<div class = imageBox><img class = image src = img/Pmask1.jpg </img></div>", "trial_id": "mask", "time_elapsed": 414195, "internal_node_id": "0.0-216.0", "key_press": -1, "trial_index": 216}, {"rt": -1, "trial_type": "single-stim", "stimulus": "<div class = imageBox><img class = image src = img/line_images/6_mis_02_02.png </img></div>", "trial_id": "probe", "time_elapsed": 415399, "internal_node_id": "0.0-217.0", "key_press": -1, "trial_index": 217}, {"rt": 656, "trial_type": "single-stim", "stimulus": "<div class = centerbox style = text-align:center><p style = font-size:50px>Same or different? </p></div>", "trial_id": "response_line", "time_elapsed": 417058, "response": ["different"], "internal_node_id": "0.0-218.0", "key_press": 48, "trial_index": 218, "congruency": ["congruent"], "correct": true, "alignment": ["misaligned"]}, {"rt": -1, "trial_type": "single-stim", "stimulus": "<div class = imageBox><img class = image src = img/line_images/17_target_01_01.png </img></div>", "trial_id": "target", "time_elapsed": 418261, "internal_node_id": "0.0-219.0", "key_press": -1, "trial_index": 219}, {"rt": -1, "trial_type": "single-stim", "stimulus": "<div class = imageBox><img class = image src = img/Pmask2.jpg </img></div>", "trial_id": "mask", "time_elapsed": 419666, "internal_node_id": "0.0-220.0", "key_press": -1, "trial_index": 220}, {"rt": -1, "trial_type": "single-stim", "stimulus": "<div class = imageBox><img class = image src = img/line_images/17_mis_02_01.png </img></div>", "trial_id": "probe", "time_elapsed": 420870, "internal_node_id": "0.0-221.0", "key_press": -1, "trial_index": 221}, {"rt": 470, "trial_type": "single-stim", "stimulus": "<div class = centerbox style = text-align:center><p style = font-size:50px>Same or different? </p></div>", "trial_id": "response_line", "time_elapsed": 422343, "response": ["different"], "internal_node_id": "0.0-222.0", "key_press": 49, "trial_index": 222, "congruency": ["incongruent"], "correct": false, "alignment": ["misaligned"]}, {"rt": -1, "trial_type": "single-stim", "stimulus": "<div class = imageBox><img class = image src = img/line_images/14_target_01_01.png </img></div>", "trial_id": "target", "time_elapsed": 423548, "internal_node_id": "0.0-223.0", "key_press": -1, "trial_index": 223}, {"rt": -1, "trial_type": "single-stim", "stimulus": "<div class = imageBox><img class = image src = img/Pmask4.jpg </img></div>", "trial_id": "mask", "time_elapsed": 424953, "internal_node_id": "0.0-224.0", "key_press": -1, "trial_index": 224}, {"rt": -1, "trial_type": "single-stim", "stimulus": "<div class = imageBox><img class = image src = img/line_images/14_al_01_01.png </img></div>", "trial_id": "probe", "time_elapsed": 426157, "internal_node_id": "0.0-225.0", "key_press": -1, "trial_index": 225}, {"rt": 546, "trial_type": "single-stim", "stimulus": "<div class = centerbox style = text-align:center><p style = font-size:50px>Same or different? </p></div>", "trial_id": "response_line", "time_elapsed": 427705, "response": ["same"], "internal_node_id": "0.0-226.0", "key_press": 49, "trial_index": 226, "congruency": ["congruent"], "correct": true, "alignment": ["aligned"]}, {"rt": -1, "trial_type": "single-stim", "stimulus": "<div class = imageBox><img class = image src = img/line_images/18_target_01_01.png </img></div>", "trial_id": "target", "time_elapsed": 428908, "internal_node_id": "0.0-227.0", "key_press": -1, "trial_index": 227}, {"rt": -1, "trial_type": "single-stim", "stimulus": "<div class = imageBox><img class = image src = img/Pmask1.jpg </img></div>", "trial_id": "mask", "time_elapsed": 430316, "internal_node_id": "0.0-228.0", "key_press": -1, "trial_index": 228}, {"rt": -1, "trial_type": "single-stim", "stimulus": "<div class = imageBox><img class = image src = img/line_images/18_al_01_01.png </img></div>", "trial_id": "probe", "time_elapsed": 431520, "internal_node_id": "0.0-229.0", "key_press": -1, "trial_index": 229}, {"rt": 407, "trial_type": "single-stim", "stimulus": "<div class = centerbox style = text-align:center><p style = font-size:50px>Same or different? </p></div>", "trial_id": "response_line", "time_elapsed": 432934, "response": ["same"], "internal_node_id": "0.0-230.0", "key_press": 49, "trial_index": 230, "congruency": ["congruent"], "correct": true, "alignment": ["aligned"]}, {"rt": -1, "trial_type": "single-stim", "stimulus": "<div class = imageBox><img class = image src = img/line_images/12_target_01_01.png </img></div>", "trial_id": "target", "time_elapsed": 434138, "internal_node_id": "0.0-231.0", "key_press": -1, "trial_index": 231}, {"rt": -1, "trial_type": "single-stim", "stimulus": "<div class = imageBox><img class = image src = img/Pmask4.jpg </img></div>", "trial_id": "mask", "time_elapsed": 435542, "internal_node_id": "0.0-232.0", "key_press": -1, "trial_index": 232}, {"rt": -1, "trial_type": "single-stim", "stimulus": "<div class = imageBox><img class = image src = img/line_images/12_mis_01_01.png </img></div>", "trial_id": "probe", "time_elapsed": 436744, "internal_node_id": "0.0-233.0", "key_press": -1, "trial_index": 233}, {"rt": 360, "trial_type": "single-stim", "stimulus": "<div class = centerbox style = text-align:center><p style = font-size:50px>Same or different? </p></div>", "trial_id": "response_line", "time_elapsed": 438106, "response": ["same"], "internal_node_id": "0.0-234.0", "key_press": 48, "trial_index": 234, "congruency": ["congruent"], "correct": false, "alignment": ["misaligned"]}, {"rt": -1, "trial_type": "single-stim", "stimulus": "<div class = imageBox><img class = image src = img/line_images/4_target_01_01.png </img></div>", "trial_id": "target", "time_elapsed": 439310, "internal_node_id": "0.0-235.0", "key_press": -1, "trial_index": 235}, {"rt": -1, "trial_type": "single-stim", "stimulus": "<div class = imageBox><img class = image src = img/Pmask4.jpg </img></div>", "trial_id": "mask", "time_elapsed": 440714, "internal_node_id": "0.0-236.0", "key_press": -1, "trial_index": 236}, {"rt": -1, "trial_type": "single-stim", "stimulus": "<div class = imageBox><img class = image src = img/line_images/4_al_02_01.png </img></div>", "trial_id": "probe", "time_elapsed": 441930, "internal_node_id": "0.0-237.0", "key_press": -1, "trial_index": 237}, {"rt": 842, "trial_type": "single-stim", "stimulus": "<div class = centerbox style = text-align:center><p style = font-size:50px>Same or different? </p></div>", "trial_id": "response_line", "time_elapsed": 443775, "response": ["different"], "internal_node_id": "0.0-238.0", "key_press": 48, "trial_index": 238, "congruency": ["incongruent"], "correct": true, "alignment": ["aligned"]}, {"rt": -1, "trial_type": "single-stim", "stimulus": "<div class = imageBox><img class = image src = img/line_images/6_target_01_01.png </img></div>", "trial_id": "target", "time_elapsed": 444978, "internal_node_id": "0.0-239.0", "key_press": -1, "trial_index": 239}, {"rt": -1, "trial_type": "single-stim", "stimulus": "<div class = imageBox><img class = image src = img/Pmask3.jpg </img></div>", "trial_id": "mask", "time_elapsed": 446381, "internal_node_id": "0.0-240.0", "key_press": -1, "trial_index": 240}, {"rt": -1, "trial_type": "single-stim", "stimulus": "<div class = imageBox><img class = image src = img/line_images/6_mis_02_01.png </img></div>", "trial_id": "probe", "time_elapsed": 447585, "internal_node_id": "0.0-241.0", "key_press": -1, "trial_index": 241}, {"rt": 531, "trial_type": "single-stim", "stimulus": "<div class = centerbox style = text-align:center><p style = font-size:50px>Same or different? </p></div>", "trial_id": "response_line", "time_elapsed": 449121, "response": ["different"], "internal_node_id": "0.0-242.0", "key_press": 48, "trial_index": 242, "congruency": ["incongruent"], "correct": true, "alignment": ["misaligned"]}, {"rt": -1, "trial_type": "single-stim", "stimulus": "<div class = imageBox><img class = image src = img/line_images/5_target_01_01.png </img></div>", "trial_id": "target", "time_elapsed": 450323, "internal_node_id": "0.0-243.0", "key_press": -1, "trial_index": 243}, {"rt": -1, "trial_type": "single-stim", "stimulus": "<div class = imageBox><img class = image src = img/Pmask1.jpg </img></div>", "trial_id": "mask", "time_elapsed": 451727, "internal_node_id": "0.0-244.0", "key_press": -1, "trial_index": 244}, {"rt": -1, "trial_type": "single-stim", "stimulus": "<div class = imageBox><img class = image src = img/line_images/5_mis_01_01.png </img></div>", "trial_id": "probe", "time_elapsed": 452930, "internal_node_id": "0.0-245.0", "key_press": -1, "trial_index": 245}, {"rt": 378, "trial_type": "single-stim", "stimulus": "<div class = centerbox style = text-align:center><p style = font-size:50px>Same or different? </p></div>", "trial_id": "response_line", "time_elapsed": 454318, "response": ["same"], "internal_node_id": "0.0-246.0", "key_press": 49, "trial_index": 246, "congruency": ["congruent"], "correct": true, "alignment": ["misaligned"]}, {"rt": -1, "trial_type": "single-stim", "stimulus": "<div class = imageBox><img class = image src = img/line_images/1_target_01_01.png </img></div>", "trial_id": "target", "time_elapsed": 455521, "internal_node_id": "0.0-247.0", "key_press": -1, "trial_index": 247}, {"rt": -1, "trial_type": "single-stim", "stimulus": "<div class = imageBox><img class = image src = img/Pmask5.jpg </img></div>", "trial_id": "mask", "time_elapsed": 456923, "internal_node_id": "0.0-248.0", "key_press": -1, "trial_index": 248}, {"rt": -1, "trial_type": "single-stim", "stimulus": "<div class = imageBox><img class = image src = img/line_images/1_mis_01_02.png </img></div>", "trial_id": "probe", "time_elapsed": 458127, "internal_node_id": "0.0-249.0", "key_press": -1, "trial_index": 249}, {"rt": 416, "trial_type": "single-stim", "stimulus": "<div class = centerbox style = text-align:center><p style = font-size:50px>Same or different? </p></div>", "trial_id": "response_line", "time_elapsed": 459545, "response": ["same"], "internal_node_id": "0.0-250.0", "key_press": 48, "trial_index": 250, "congruency": ["incongruent"], "correct": false, "alignment": ["misaligned"]}, {"rt": -1, "trial_type": "single-stim", "stimulus": "<div class = imageBox><img class = image src = img/line_images/2_target_01_01.png </img></div>", "trial_id": "target", "time_elapsed": 460747, "internal_node_id": "0.0-251.0", "key_press": -1, "trial_index": 251}, {"rt": -1, "trial_type": "single-stim", "stimulus": "<div class = imageBox><img class = image src = img/Pmask1.jpg </img></div>", "trial_id": "mask", "time_elapsed": 462151, "internal_node_id": "0.0-252.0", "key_press": -1, "trial_index": 252}, {"rt": -1, "trial_type": "single-stim", "stimulus": "<div class = imageBox><img class = image src = img/line_images/2_mis_02_01.png </img></div>", "trial_id": "probe", "time_elapsed": 463352, "internal_node_id": "0.0-253.0", "key_press": -1, "trial_index": 253}, {"rt": 476, "trial_type": "single-stim", "stimulus": "<div class = centerbox style = text-align:center><p style = font-size:50px>Same or different? </p></div>", "trial_id": "response_line", "time_elapsed": 464831, "response": ["different"], "internal_node_id": "0.0-254.0", "key_press": 48, "trial_index": 254, "congruency": ["incongruent"], "correct": true, "alignment": ["misaligned"]}, {"rt": -1, "trial_type": "single-stim", "stimulus": "<div class = imageBox><img class = image src = img/line_images/10_target_01_01.png </img></div>", "trial_id": "target", "time_elapsed": 466033, "internal_node_id": "0.0-255.0", "key_press": -1, "trial_index": 255}, {"rt": -1, "trial_type": "single-stim", "stimulus": "<div class = imageBox><img class = image src = img/Pmask5.jpg </img></div>", "trial_id": "mask", "time_elapsed": 467443, "internal_node_id": "0.0-256.0", "key_press": -1, "trial_index": 256}, {"rt": -1, "trial_type": "single-stim", "stimulus": "<div class = imageBox><img class = image src = img/line_images/10_al_02_02.png </img></div>", "trial_id": "probe", "time_elapsed": 468646, "internal_node_id": "0.0-257.0", "key_press": -1, "trial_index": 257}, {"rt": 1000, "trial_type": "single-stim", "stimulus": "<div class = centerbox style = text-align:center><p style = font-size:50px>Same or different? </p></div>", "trial_id": "response_line", "time_elapsed": 470649, "response": ["different"], "internal_node_id": "0.0-258.0", "key_press": 48, "trial_index": 258, "congruency": ["congruent"], "correct": true, "alignment": ["aligned"]}, {"rt": -1, "trial_type": "single-stim", "stimulus": "<div class = imageBox><img class = image src = img/line_images/13_target_01_01.png </img></div>", "trial_id": "target", "time_elapsed": 471855, "internal_node_id": "0.0-259.0", "key_press": -1, "trial_index": 259}, {"rt": -1, "trial_type": "single-stim", "stimulus": "<div class = imageBox><img class = image src = img/Pmask3.jpg </img></div>", "trial_id": "mask", "time_elapsed": 473260, "internal_node_id": "0.0-260.0", "key_press": -1, "trial_index": 260}, {"rt": -1, "trial_type": "single-stim", "stimulus": "<div class = imageBox><img class = image src = img/line_images/13_al_01_02.png </img></div>", "trial_id": "probe", "time_elapsed": 474463, "internal_node_id": "0.0-261.0", "key_press": -1, "trial_index": 261}, {"rt": 389, "trial_type": "single-stim", "stimulus": "<div class = centerbox style = text-align:center><p style = font-size:50px>Same or different? </p></div>", "trial_id": "response_line", "time_elapsed": 475855, "response": ["same"], "internal_node_id": "0.0-262.0", "key_press": 49, "trial_index": 262, "congruency": ["incongruent"], "correct": true, "alignment": ["aligned"]}, {"rt": -1, "trial_type": "single-stim", "stimulus": "<div class = imageBox><img class = image src = img/line_images/2_target_01_01.png </img></div>", "trial_id": "target", "time_elapsed": 477059, "internal_node_id": "0.0-263.0", "key_press": -1, "trial_index": 263}, {"rt": -1, "trial_type": "single-stim", "stimulus": "<div class = imageBox><img class = image src = img/Pmask1.jpg </img></div>", "trial_id": "mask", "time_elapsed": 478461, "internal_node_id": "0.0-264.0", "key_press": -1, "trial_index": 264}, {"rt": -1, "trial_type": "single-stim", "stimulus": "<div class = imageBox><img class = image src = img/line_images/2_mis_02_02.png </img></div>", "trial_id": "probe", "time_elapsed": 479663, "internal_node_id": "0.0-265.0", "key_press": -1, "trial_index": 265}, {"rt": 336, "trial_type": "single-stim", "stimulus": "<div class = centerbox style = text-align:center><p style = font-size:50px>Same or different? </p></div>", "trial_id": "response_line", "time_elapsed": 481001, "response": ["different"], "internal_node_id": "0.0-266.0", "key_press": 48, "trial_index": 266, "congruency": ["congruent"], "correct": true, "alignment": ["misaligned"]}, {"rt": -1, "trial_type": "single-stim", "stimulus": "<div class = imageBox><img class = image src = img/line_images/8_target_01_01.png </img></div>", "trial_id": "target", "time_elapsed": 482204, "internal_node_id": "0.0-267.0", "key_press": -1, "trial_index": 267}, {"rt": -1, "trial_type": "single-stim", "stimulus": "<div class = imageBox><img class = image src = img/Pmask1.jpg </img></div>", "trial_id": "mask", "time_elapsed": 483609, "internal_node_id": "0.0-268.0", "key_press": -1, "trial_index": 268}, {"rt": -1, "trial_type": "single-stim", "stimulus": "<div class = imageBox><img class = image src = img/line_images/8_mis_02_02.png </img></div>", "trial_id": "probe", "time_elapsed": 484816, "internal_node_id": "0.0-269.0", "key_press": -1, "trial_index": 269}, {"rt": 396, "trial_type": "single-stim", "stimulus": "<div class = centerbox style = text-align:center><p style = font-size:50px>Same or different? </p></div>", "trial_id": "response_line", "time_elapsed": 486214, "response": ["different"], "internal_node_id": "0.0-270.0", "key_press": 48, "trial_index": 270, "congruency": ["congruent"], "correct": true, "alignment": ["misaligned"]}, {"rt": -1, "trial_type": "single-stim", "stimulus": "<div class = imageBox><img class = image src = img/line_images/9_target_01_01.png </img></div>", "trial_id": "target", "time_elapsed": 487417, "internal_node_id": "0.0-271.0", "key_press": -1, "trial_index": 271}, {"rt": -1, "trial_type": "single-stim", "stimulus": "<div class = imageBox><img class = image src = img/Pmask3.jpg </img></div>", "trial_id": "mask", "time_elapsed": 488820, "internal_node_id": "0.0-272.0", "key_press": -1, "trial_index": 272}, {"rt": -1, "trial_type": "single-stim", "stimulus": "<div class = imageBox><img class = image src = img/line_images/9_al_01_01.png </img></div>", "trial_id": "probe", "time_elapsed": 490023, "internal_node_id": "0.0-273.0", "key_press": -1, "trial_index": 273}, {"rt": 358, "trial_type": "single-stim", "stimulus": "<div class = centerbox style = text-align:center><p style = font-size:50px>Same or different? </p></div>", "trial_id": "response_line", "time_elapsed": 491385, "response": ["same"], "internal_node_id": "0.0-274.0", "key_press": 49, "trial_index": 274, "congruency": ["congruent"], "correct": true, "alignment": ["aligned"]}, {"rt": -1, "trial_type": "single-stim", "stimulus": "<div class = imageBox><img class = image src = img/line_images/8_target_01_01.png </img></div>", "trial_id": "target", "time_elapsed": 492588, "internal_node_id": "0.0-275.0", "key_press": -1, "trial_index": 275}, {"rt": -1, "trial_type": "single-stim", "stimulus": "<div class = imageBox><img class = image src = img/Pmask4.jpg </img></div>", "trial_id": "mask", "time_elapsed": 493990, "internal_node_id": "0.0-276.0", "key_press": -1, "trial_index": 276}, {"rt": -1, "trial_type": "single-stim", "stimulus": "<div class = imageBox><img class = image src = img/line_images/8_al_01_01.png </img></div>", "trial_id": "probe", "time_elapsed": 495192, "internal_node_id": "0.0-277.0", "key_press": -1, "trial_index": 277}, {"rt": 356, "trial_type": "single-stim", "stimulus": "<div class = centerbox style = text-align:center><p style = font-size:50px>Same or different? </p></div>", "trial_id": "response_line", "time_elapsed": 496550, "response": ["same"], "internal_node_id": "0.0-278.0", "key_press": 49, "trial_index": 278, "congruency": ["congruent"], "correct": true, "alignment": ["aligned"]}, {"rt": -1, "trial_type": "single-stim", "stimulus": "<div class = imageBox><img class = image src = img/line_images/2_target_01_01.png </img></div>", "trial_id": "target", "time_elapsed": 497755, "internal_node_id": "0.0-279.0", "key_press": -1, "trial_index": 279}, {"rt": -1, "trial_type": "single-stim", "stimulus": "<div class = imageBox><img class = image src = img/Pmask5.jpg </img></div>", "trial_id": "mask", "time_elapsed": 499157, "internal_node_id": "0.0-280.0", "key_press": -1, "trial_index": 280}, {"rt": -1, "trial_type": "single-stim", "stimulus": "<div class = imageBox><img class = image src = img/line_images/2_al_02_02.png </img></div>", "trial_id": "probe", "time_elapsed": 500360, "internal_node_id": "0.0-281.0", "key_press": -1, "trial_index": 281}, {"rt": 318, "trial_type": "single-stim", "stimulus": "<div class = centerbox style = text-align:center><p style = font-size:50px>Same or different? </p></div>", "trial_id": "response_line", "time_elapsed": 501680, "response": ["different"], "internal_node_id": "0.0-282.0", "key_press": 49, "trial_index": 282, "congruency": ["congruent"], "correct": false, "alignment": ["aligned"]}, {"rt": -1, "trial_type": "single-stim", "stimulus": "<div class = imageBox><img class = image src = img/line_images/17_target_01_01.png </img></div>", "trial_id": "target", "time_elapsed": 502883, "internal_node_id": "0.0-283.0", "key_press": -1, "trial_index": 283}, {"rt": -1, "trial_type": "single-stim", "stimulus": "<div class = imageBox><img class = image src = img/Pmask1.jpg </img></div>", "trial_id": "mask", "time_elapsed": 504286, "internal_node_id": "0.0-284.0", "key_press": -1, "trial_index": 284}, {"rt": -1, "trial_type": "single-stim", "stimulus": "<div class = imageBox><img class = image src = img/line_images/17_al_02_02.png </img></div>", "trial_id": "probe", "time_elapsed": 505490, "internal_node_id": "0.0-285.0", "key_press": -1, "trial_index": 285}, {"rt": 289, "trial_type": "single-stim", "stimulus": "<div class = centerbox style = text-align:center><p style = font-size:50px>Same or different? </p></div>", "trial_id": "response_line", "time_elapsed": 506783, "response": ["different"], "internal_node_id": "0.0-286.0", "key_press": 48, "trial_index": 286, "congruency": ["congruent"], "correct": true, "alignment": ["aligned"]}, {"rt": -1, "trial_type": "single-stim", "stimulus": "<div class = imageBox><img class = image src = img/line_images/1_target_01_01.png </img></div>", "trial_id": "target", "time_elapsed": 507986, "internal_node_id": "0.0-287.0", "key_press": -1, "trial_index": 287}, {"rt": -1, "trial_type": "single-stim", "stimulus": "<div class = imageBox><img class = image src = img/Pmask3.jpg </img></div>", "trial_id": "mask", "time_elapsed": 509391, "internal_node_id": "0.0-288.0", "key_press": -1, "trial_index": 288}, {"rt": -1, "trial_type": "single-stim", "stimulus": "<div class = imageBox><img class = image src = img/line_images/1_mis_02_02.png </img></div>", "trial_id": "probe", "time_elapsed": 510594, "internal_node_id": "0.0-289.0", "key_press": -1, "trial_index": 289}, {"rt": 288, "trial_type": "single-stim", "stimulus": "<div class = centerbox style = text-align:center><p style = font-size:50px>Same or different? </p></div>", "trial_id": "response_line", "time_elapsed": 511898, "response": ["different"], "internal_node_id": "0.0-290.0", "key_press": 48, "trial_index": 290, "congruency": ["congruent"], "correct": true, "alignment": ["misaligned"]}, {"rt": -1, "trial_type": "single-stim", "stimulus": "<div class = imageBox><img class = image src = img/line_images/14_target_01_01.png </img></div>", "trial_id": "target", "time_elapsed": 513100, "internal_node_id": "0.0-291.0", "key_press": -1, "trial_index": 291}, {"rt": -1, "trial_type": "single-stim", "stimulus": "<div class = imageBox><img class = image src = img/Pmask4.jpg </img></div>", "trial_id": "mask", "time_elapsed": 514503, "internal_node_id": "0.0-292.0", "key_press": -1, "trial_index": 292}, {"rt": -1, "trial_type": "single-stim", "stimulus": "<div class = imageBox><img class = image src = img/line_images/14_al_01_02.png </img></div>", "trial_id": "probe", "time_elapsed": 515708, "internal_node_id": "0.0-293.0", "key_press": -1, "trial_index": 293}, {"rt": 408, "trial_type": "single-stim", "stimulus": "<div class = centerbox style = text-align:center><p style = font-size:50px>Same or different? </p></div>", "trial_id": "response_line", "time_elapsed": 517118, "response": ["same"], "internal_node_id": "0.0-294.0", "key_press": 48, "trial_index": 294, "congruency": ["incongruent"], "correct": false, "alignment": ["aligned"]}, {"rt": -1, "trial_type": "single-stim", "stimulus": "<div class = imageBox><img class = image src = img/line_images/6_target_01_01.png </img></div>", "trial_id": "target", "time_elapsed": 518322, "internal_node_id": "0.0-295.0", "key_press": -1, "trial_index": 295}, {"rt": -1, "trial_type": "single-stim", "stimulus": "<div class = imageBox><img class = image src = img/Pmask2.jpg </img></div>", "trial_id": "mask", "time_elapsed": 519724, "internal_node_id": "0.0-296.0", "key_press": -1, "trial_index": 296}, {"rt": -1, "trial_type": "single-stim", "stimulus": "<div class = imageBox><img class = image src = img/line_images/6_al_02_01.png </img></div>", "trial_id": "probe", "time_elapsed": 520927, "internal_node_id": "0.0-297.0", "key_press": -1, "trial_index": 297}, {"rt": 477, "trial_type": "single-stim", "stimulus": "<div class = centerbox style = text-align:center><p style = font-size:50px>Same or different? </p></div>", "trial_id": "response_line", "time_elapsed": 522409, "response": ["different"], "internal_node_id": "0.0-298.0", "key_press": 48, "trial_index": 298, "congruency": ["incongruent"], "correct": true, "alignment": ["aligned"]}, {"rt": -1, "trial_type": "single-stim", "stimulus": "<div class = imageBox><img class = image src = img/line_images/20_target_01_01.png </img></div>", "trial_id": "target", "time_elapsed": 523612, "internal_node_id": "0.0-299.0", "key_press": -1, "trial_index": 299}, {"rt": -1, "trial_type": "single-stim", "stimulus": "<div class = imageBox><img class = image src = img/Pmask3.jpg </img></div>", "trial_id": "mask", "time_elapsed": 525017, "internal_node_id": "0.0-300.0", "key_press": -1, "trial_index": 300}, {"rt": -1, "trial_type": "single-stim", "stimulus": "<div class = imageBox><img class = image src = img/line_images/20_al_01_01.png </img></div>", "trial_id": "probe", "time_elapsed": 526221, "internal_node_id": "0.0-301.0", "key_press": -1, "trial_index": 301}, {"rt": 328, "trial_type": "single-stim", "stimulus": "<div class = centerbox style = text-align:center><p style = font-size:50px>Same or different? </p></div>", "trial_id": "response_line", "time_elapsed": 527559, "response": ["same"], "internal_node_id": "0.0-302.0", "key_press": 49, "trial_index": 302, "congruency": ["congruent"], "correct": true, "alignment": ["aligned"]}, {"rt": -1, "trial_type": "single-stim", "stimulus": "<div class = imageBox><img class = image src = img/line_images/19_target_01_01.png </img></div>", "trial_id": "target", "time_elapsed": 528762, "internal_node_id": "0.0-303.0", "key_press": -1, "trial_index": 303}, {"rt": -1, "trial_type": "single-stim", "stimulus": "<div class = imageBox><img class = image src = img/Pmask1.jpg </img></div>", "trial_id": "mask", "time_elapsed": 530166, "internal_node_id": "0.0-304.0", "key_press": -1, "trial_index": 304}, {"rt": -1, "trial_type": "single-stim", "stimulus": "<div class = imageBox><img class = image src = img/line_images/19_al_01_01.png </img></div>", "trial_id": "probe", "time_elapsed": 531369, "internal_node_id": "0.0-305.0", "key_press": -1, "trial_index": 305}, {"rt": 301, "trial_type": "single-stim", "stimulus": "<div class = centerbox style = text-align:center><p style = font-size:50px>Same or different? </p></div>", "trial_id": "response_line", "time_elapsed": 532672, "response": ["same"], "internal_node_id": "0.0-306.0", "key_press": 49, "trial_index": 306, "congruency": ["congruent"], "correct": true, "alignment": ["aligned"]}, {"rt": -1, "trial_type": "single-stim", "stimulus": "<div class = imageBox><img class = image src = img/line_images/15_target_01_01.png </img></div>", "trial_id": "target", "time_elapsed": 533876, "internal_node_id": "0.0-307.0", "key_press": -1, "trial_index": 307}, {"rt": -1, "trial_type": "single-stim", "stimulus": "<div class = imageBox><img class = image src = img/Pmask2.jpg </img></div>", "trial_id": "mask", "time_elapsed": 535279, "internal_node_id": "0.0-308.0", "key_press": -1, "trial_index": 308}, {"rt": -1, "trial_type": "single-stim", "stimulus": "<div class = imageBox><img class = image src = img/line_images/15_mis_02_02.png </img></div>", "trial_id": "probe", "time_elapsed": 536481, "internal_node_id": "0.0-309.0", "key_press": -1, "trial_index": 309}, {"rt": 395, "trial_type": "single-stim", "stimulus": "<div class = centerbox style = text-align:center><p style = font-size:50px>Same or different? </p></div>", "trial_id": "response_line", "time_elapsed": 537878, "response": ["different"], "internal_node_id": "0.0-310.0", "key_press": 48, "trial_index": 310, "congruency": ["congruent"], "correct": true, "alignment": ["misaligned"]}, {"rt": -1, "trial_type": "single-stim", "stimulus": "<div class = imageBox><img class = image src = img/line_images/14_target_01_01.png </img></div>", "trial_id": "target", "time_elapsed": 539081, "internal_node_id": "0.0-311.0", "key_press": -1, "trial_index": 311}, {"rt": -1, "trial_type": "single-stim", "stimulus": "<div class = imageBox><img class = image src = img/Pmask5.jpg </img></div>", "trial_id": "mask", "time_elapsed": 540485, "internal_node_id": "0.0-312.0", "key_press": -1, "trial_index": 312}, {"rt": -1, "trial_type": "single-stim", "stimulus": "<div class = imageBox><img class = image src = img/line_images/14_mis_01_02.png </img></div>", "trial_id": "probe", "time_elapsed": 541687, "internal_node_id": "0.0-313.0", "key_press": -1, "trial_index": 313}, {"rt": 374, "trial_type": "single-stim", "stimulus": "<div class = centerbox style = text-align:center><p style = font-size:50px>Same or different? </p></div>", "trial_id": "response_line", "time_elapsed": 543064, "response": ["same"], "internal_node_id": "0.0-314.0", "key_press": 48, "trial_index": 314, "congruency": ["incongruent"], "correct": false, "alignment": ["misaligned"]}, {"rt": -1, "trial_type": "single-stim", "stimulus": "<div class = imageBox><img class = image src = img/line_images/18_target_01_01.png </img></div>", "trial_id": "target", "time_elapsed": 544269, "internal_node_id": "0.0-315.0", "key_press": -1, "trial_index": 315}, {"rt": -1, "trial_type": "single-stim", "stimulus": "<div class = imageBox><img class = image src = img/Pmask5.jpg </img></div>", "trial_id": "mask", "time_elapsed": 545674, "internal_node_id": "0.0-316.0", "key_press": -1, "trial_index": 316}, {"rt": -1, "trial_type": "single-stim", "stimulus": "<div class = imageBox><img class = image src = img/line_images/18_al_02_02.png </img></div>", "trial_id": "probe", "time_elapsed": 546878, "internal_node_id": "0.0-317.0", "key_press": -1, "trial_index": 317}, {"rt": 341, "trial_type": "single-stim", "stimulus": "<div class = centerbox style = text-align:center><p style = font-size:50px>Same or different? </p></div>", "trial_id": "response_line", "time_elapsed": 548223, "response": ["different"], "internal_node_id": "0.0-318.0", "key_press": 48, "trial_index": 318, "congruency": ["congruent"], "correct": true, "alignment": ["aligned"]}, {"rt": -1, "trial_type": "single-stim", "stimulus": "<div class = imageBox><img class = image src = img/line_images/15_target_01_01.png </img></div>", "trial_id": "target", "time_elapsed": 549428, "internal_node_id": "0.0-319.0", "key_press": -1, "trial_index": 319}, {"rt": -1, "trial_type": "single-stim", "stimulus": "<div class = imageBox><img class = image src = img/Pmask1.jpg </img></div>", "trial_id": "mask", "time_elapsed": 550831, "internal_node_id": "0.0-320.0", "key_press": -1, "trial_index": 320}, {"rt": -1, "trial_type": "single-stim", "stimulus": "<div class = imageBox><img class = image src = img/line_images/15_mis_01_02.png </img></div>", "trial_id": "probe", "time_elapsed": 552033, "internal_node_id": "0.0-321.0", "key_press": -1, "trial_index": 321}, {"rt": 428, "trial_type": "single-stim", "stimulus": "<div class = centerbox style = text-align:center><p style = font-size:50px>Same or different? </p></div>", "trial_id": "response_line", "time_elapsed": 553465, "response": ["same"], "internal_node_id": "0.0-322.0", "key_press": 48, "trial_index": 322, "congruency": ["incongruent"], "correct": false, "alignment": ["misaligned"]}, {"rt": -1, "trial_type": "single-stim", "stimulus": "<div class = imageBox><img class = image src = img/line_images/13_target_01_01.png </img></div>", "trial_id": "target", "time_elapsed": 554669, "internal_node_id": "0.0-323.0", "key_press": -1, "trial_index": 323}, {"rt": -1, "trial_type": "single-stim", "stimulus": "<div class = imageBox><img class = image src = img/Pmask1.jpg </img></div>", "trial_id": "mask", "time_elapsed": 556073, "internal_node_id": "0.0-324.0", "key_press": -1, "trial_index": 324}, {"rt": -1, "trial_type": "single-stim", "stimulus": "<div class = imageBox><img class = image src = img/line_images/13_al_02_01.png </img></div>", "trial_id": "probe", "time_elapsed": 557276, "internal_node_id": "0.0-325.0", "key_press": -1, "trial_index": 325}, {"rt": 425, "trial_type": "single-stim", "stimulus": "<div class = centerbox style = text-align:center><p style = font-size:50px>Same or different? </p></div>", "trial_id": "response_line", "time_elapsed": 558703, "response": ["different"], "internal_node_id": "0.0-326.0", "key_press": 48, "trial_index": 326, "congruency": ["incongruent"], "correct": true, "alignment": ["aligned"]}, {"rt": -1, "trial_type": "single-stim", "stimulus": "<div class = imageBox><img class = image src = img/line_images/7_target_01_01.png </img></div>", "trial_id": "target", "time_elapsed": 559905, "internal_node_id": "0.0-327.0", "key_press": -1, "trial_index": 327}, {"rt": -1, "trial_type": "single-stim", "stimulus": "<div class = imageBox><img class = image src = img/Pmask2.jpg </img></div>", "trial_id": "mask", "time_elapsed": 561310, "internal_node_id": "0.0-328.0", "key_press": -1, "trial_index": 328}, {"rt": -1, "trial_type": "single-stim", "stimulus": "<div class = imageBox><img class = image src = img/line_images/7_mis_02_01.png </img></div>", "trial_id": "probe", "time_elapsed": 562514, "internal_node_id": "0.0-329.0", "key_press": -1, "trial_index": 329}, {"rt": 475, "trial_type": "single-stim", "stimulus": "<div class = centerbox style = text-align:center><p style = font-size:50px>Same or different? </p></div>", "trial_id": "response_line", "time_elapsed": 563992, "response": ["different"], "internal_node_id": "0.0-330.0", "key_press": 48, "trial_index": 330, "congruency": ["incongruent"], "correct": true, "alignment": ["misaligned"]}, {"rt": -1, "trial_type": "single-stim", "stimulus": "<div class = imageBox><img class = image src = img/line_images/20_target_01_01.png </img></div>", "trial_id": "target", "time_elapsed": 565203, "internal_node_id": "0.0-331.0", "key_press": -1, "trial_index": 331}, {"rt": -1, "trial_type": "single-stim", "stimulus": "<div class = imageBox><img class = image src = img/Pmask1.jpg </img></div>", "trial_id": "mask", "time_elapsed": 566608, "internal_node_id": "0.0-332.0", "key_press": -1, "trial_index": 332}, {"rt": -1, "trial_type": "single-stim", "stimulus": "<div class = imageBox><img class = image src = img/line_images/20_mis_01_01.png </img></div>", "trial_id": "probe", "time_elapsed": 567811, "internal_node_id": "0.0-333.0", "key_press": -1, "trial_index": 333}, {"rt": 398, "trial_type": "single-stim", "stimulus": "<div class = centerbox style = text-align:center><p style = font-size:50px>Same or different? </p></div>", "trial_id": "response_line", "time_elapsed": 569215, "response": ["same"], "internal_node_id": "0.0-334.0", "key_press": 48, "trial_index": 334, "congruency": ["congruent"], "correct": false, "alignment": ["misaligned"]}, {"rt": -1, "trial_type": "single-stim", "stimulus": "<div class = imageBox><img class = image src = img/line_images/18_target_01_01.png </img></div>", "trial_id": "target", "time_elapsed": 570419, "internal_node_id": "0.0-335.0", "key_press": -1, "trial_index": 335}, {"rt": -1, "trial_type": "single-stim", "stimulus": "<div class = imageBox><img class = image src = img/Pmask1.jpg </img></div>", "trial_id": "mask", "time_elapsed": 571823, "internal_node_id": "0.0-336.0", "key_press": -1, "trial_index": 336}, {"rt": -1, "trial_type": "single-stim", "stimulus": "<div class = imageBox><img class = image src = img/line_images/18_al_01_02.png </img></div>", "trial_id": "probe", "time_elapsed": 573026, "internal_node_id": "0.0-337.0", "key_press": -1, "trial_index": 337}, {"rt": 476, "trial_type": "single-stim", "stimulus": "<div class = centerbox style = text-align:center><p style = font-size:50px>Same or different? </p></div>", "trial_id": "response_line", "time_elapsed": 574505, "response": ["same"], "internal_node_id": "0.0-338.0", "key_press": 48, "trial_index": 338, "congruency": ["incongruent"], "correct": false, "alignment": ["aligned"]}, {"rt": -1, "trial_type": "single-stim", "stimulus": "<div class = imageBox><img class = image src = img/line_images/12_target_01_01.png </img></div>", "trial_id": "target", "time_elapsed": 575709, "internal_node_id": "0.0-339.0", "key_press": -1, "trial_index": 339}, {"rt": -1, "trial_type": "single-stim", "stimulus": "<div class = imageBox><img class = image src = img/Pmask2.jpg </img></div>", "trial_id": "mask", "time_elapsed": 577112, "internal_node_id": "0.0-340.0", "key_press": -1, "trial_index": 340}, {"rt": -1, "trial_type": "single-stim", "stimulus": "<div class = imageBox><img class = image src = img/line_images/12_al_01_01.png </img></div>", "trial_id": "probe", "time_elapsed": 578316, "internal_node_id": "0.0-341.0", "key_press": -1, "trial_index": 341}, {"rt": 365, "trial_type": "single-stim", "stimulus": "<div class = centerbox style = text-align:center><p style = font-size:50px>Same or different? </p></div>", "trial_id": "response_line", "time_elapsed": 579686, "response": ["same"], "internal_node_id": "0.0-342.0", "key_press": 48, "trial_index": 342, "congruency": ["congruent"], "correct": false, "alignment": ["aligned"]}, {"rt": -1, "trial_type": "single-stim", "stimulus": "<div class = imageBox><img class = image src = img/line_images/8_target_01_01.png </img></div>", "trial_id": "target", "time_elapsed": 580893, "internal_node_id": "0.0-343.0", "key_press": -1, "trial_index": 343}, {"rt": -1, "trial_type": "single-stim", "stimulus": "<div class = imageBox><img class = image src = img/Pmask1.jpg </img></div>", "trial_id": "mask", "time_elapsed": 582298, "internal_node_id": "0.0-344.0", "key_press": -1, "trial_index": 344}, {"rt": -1, "trial_type": "single-stim", "stimulus": "<div class = imageBox><img class = image src = img/line_images/8_al_02_02.png </img></div>", "trial_id": "probe", "time_elapsed": 583501, "internal_node_id": "0.0-345.0", "key_press": -1, "trial_index": 345}, {"rt": 448, "trial_type": "single-stim", "stimulus": "<div class = centerbox style = text-align:center><p style = font-size:50px>Same or different? </p></div>", "trial_id": "response_line", "time_elapsed": 584953, "response": ["different"], "internal_node_id": "0.0-346.0", "key_press": 48, "trial_index": 346, "congruency": ["congruent"], "correct": true, "alignment": ["aligned"]}, {"rt": -1, "trial_type": "single-stim", "stimulus": "<div class = imageBox><img class = image src = img/line_images/11_target_01_01.png </img></div>", "trial_id": "target", "time_elapsed": 586159, "internal_node_id": "0.0-347.0", "key_press": -1, "trial_index": 347}, {"rt": -1, "trial_type": "single-stim", "stimulus": "<div class = imageBox><img class = image src = img/Pmask4.jpg </img></div>", "trial_id": "mask", "time_elapsed": 587563, "internal_node_id": "0.0-348.0", "key_press": -1, "trial_index": 348}, {"rt": -1, "trial_type": "single-stim", "stimulus": "<div class = imageBox><img class = image src = img/line_images/11_mis_01_02.png </img></div>", "trial_id": "probe", "time_elapsed": 588766, "internal_node_id": "0.0-349.0", "key_press": -1, "trial_index": 349}, {"rt": 436, "trial_type": "single-stim", "stimulus": "<div class = centerbox style = text-align:center><p style = font-size:50px>Same or different? </p></div>", "trial_id": "response_line", "time_elapsed": 590207, "response": ["sam