{"AutoApprovalTime": "2017-11-29T20:33:34Z", "AssignmentId": "3M23Y66PO2756O52UEJG0SMM7M96SH", "WorkerId": "anon1", "answers": {"data": [{"rt": -1, "trial_type": "text", "time_elapsed": 5116, "internal_node_id": "0.0-0.0", "key_press": 13, "trial_index": 0}, {"rt": -1, "trial_type": "text", "time_elapsed": 34433, "internal_node_id": "0.0-1.0", "key_press": 13, "trial_index": 1}, {"rt": -1, "trial_type": "single-stim", "stimulus": "<div class = imageBox><img class = image src = img/line_images/21_target_01_01.png </img></div>", "time_elapsed": 36645, "internal_node_id": "0.0-2.0", "key_press": -1, "trial_index": 2}, {"rt": -1, "trial_type": "single-stim", "stimulus": "<div class = imageBox><img class = image src = img/Pmask1.jpg </img></div>", "trial_id": "mask", "time_elapsed": 38049, "internal_node_id": "0.0-3.0", "key_press": -1, "trial_index": 3}, {"rt": -1, "trial_type": "single-stim", "stimulus": "<div class = imageBox><img class = image src = img/line_images/21_al_01_02.png </img></div>", "time_elapsed": 39253, "internal_node_id": "0.0-4.0", "key_press": -1, "trial_index": 4}, {"rt": -1, "trial_type": "single-stim", "stimulus": "<div class = centerbox style = text-align:center><p style = font-size:50px>Same or different? </p></div>", "internal_node_id": "0.0-5.0", "response": ["same"], "time_elapsed": 41057, "key_press": 48, "correct": false, "trial_index": 5}, {"rt": -1, "trial_type": "single-stim", "stimulus": "<div class = centerbox style = text-align:center><p style = font-size:40px><span class = 'large' style = 'color:red'>Incorrect</span> </p></div>", "time_elapsed": 42563, "internal_node_id": "0.0-6.0", "key_press": -1, "trial_index": 6}, {"rt": -1, "trial_type": "single-stim", "stimulus": "<div class = imageBox><img class = image src = img/line_images/23_target_01_01.png </img></div>", "time_elapsed": 43767, "internal_node_id": "0.0-7.0", "key_press": -1, "trial_index": 7}, {"rt": -1, "trial_type": "single-stim", "stimulus": "<div class = imageBox><img class = image src = img/Pmask2.jpg </img></div>", "trial_id": "mask", "time_elapsed": 45186, "internal_node_id": "0.0-8.0", "key_press": -1, "trial_index": 8}, {"rt": -1, "trial_type": "single-stim", "stimulus": "<div class = imageBox><img class = image src = img/line_images/23_mis_01_02.png </img></div>", "time_elapsed": 46389, "internal_node_id": "0.0-9.0", "key_press": -1, "trial_index": 9}, {"rt": -1, "trial_type": "single-stim", "stimulus": "<div class = centerbox style = text-align:center><p style = font-size:50px>Same or different? </p></div>", "internal_node_id": "0.0-10.0", "response": ["same"], "time_elapsed": 47901, "key_press": 49, "correct": true, "trial_index": 10}, {"rt": -1, "trial_type": "single-stim", "stimulus": "<div class = centerbox style = text-align:center><p style = font-size:40px><span class = 'large' style = 'color:green'>Correct!</span> </p></div>", "time_elapsed": 49403, "internal_node_id": "0.0-11.0", "key_press": -1, "trial_index": 11}, {"rt": -1, "trial_type": "single-stim", "stimulus": "<div class = imageBox><img class = image src = img/line_images/24_target_01_01.png </img></div>", "time_elapsed": 50605, "internal_node_id": "0.0-12.0", "key_press": -1, "trial_index": 12}, {"rt": -1, "trial_type": "single-stim", "stimulus": "<div class = imageBox><img class = image src = img/Pmask2.jpg </img></div>", "trial_id": "mask", "time_elapsed": 52010, "internal_node_id": "0.0-13.0", "key_press": -1, "trial_index": 13}, {"rt": -1, "trial_type": "single-stim", "stimulus": "<div class = imageBox><img class = image src = img/line_images/24_al_02_01.png </img></div>", "time_elapsed": 53214, "internal_node_id": "0.0-14.0", "key_press": -1, "trial_index": 14}, {"rt": -1, "trial_type": "single-stim", "stimulus": "<div class = centerbox style = text-align:center><p style = font-size:50px>Same or different? </p></div>", "internal_node_id": "0.0-15.0", "response": ["different"], "time_elapsed": 54545, "key_press": 49, "correct": false, "trial_index": 15}, {"rt": -1, "trial_type": "single-stim", "stimulus": "<div class = centerbox style = text-align:center><p style = font-size:40px><span class = 'large' style = 'color:red'>Incorrect</span> </p></div>", "time_elapsed": 56051, "internal_node_id": "0.0-16.0", "key_press": -1, "trial_index": 16}, {"rt": -1, "trial_type": "single-stim", "stimulus": "<div class = imageBox><img class = image src = img/line_images/24_target_01_01.png </img></div>", "time_elapsed": 57255, "internal_node_id": "0.0-17.0", "key_press": -1, "trial_index": 17}, {"rt": -1, "trial_type": "single-stim", "stimulus": "<div class = imageBox><img class = image src = img/Pmask1.jpg </img></div>", "trial_id": "mask", "time_elapsed": 58659, "internal_node_id": "0.0-18.0", "key_press": -1, "trial_index": 18}, {"rt": -1, "trial_type": "single-stim", "stimulus": "<div class = imageBox><img class = image src = img/line_images/24_mis_02_01.png </img></div>", "time_elapsed": 59862, "internal_node_id": "0.0-19.0", "key_press": -1, "trial_index": 19}, {"rt": -1, "trial_type": "single-stim", "stimulus": "<div class = centerbox style = text-align:center><p style = font-size:50px>Same or different? </p></div>", "internal_node_id": "0.0-20.0", "response": ["different"], "time_elapsed": 61045, "key_press": 48, "correct": true, "trial_index": 20}, {"rt": -1, "trial_type": "single-stim", "stimulus": "<div class = centerbox style = text-align:center><p style = font-size:40px><span class = 'large' style = 'color:green'>Correct!</span> </p></div>", "time_elapsed": 62550, "internal_node_id": "0.0-21.0", "key_press": -1, "trial_index": 21}, {"rt": -1, "trial_type": "single-stim", "stimulus": "<div class = imageBox><img class = image src = img/line_images/21_target_01_01.png </img></div>", "time_elapsed": 63754, "internal_node_id": "0.0-22.0", "key_press": -1, "trial_index": 22}, {"rt": -1, "trial_type": "single-stim", "stimulus": "<div class = imageBox><img class = image src = img/Pmask4.jpg </img></div>", "trial_id": "mask", "time_elapsed": 65159, "internal_node_id": "0.0-23.0", "key_press": -1, "trial_index": 23}, {"rt": -1, "trial_type": "single-stim", "stimulus": "<div class = imageBox><img class = image src = img/line_images/21_al_02_01.png </img></div>", "time_elapsed": 66362, "internal_node_id": "0.0-24.0", "key_press": -1, "trial_index": 24}, {"rt": -1, "trial_type": "single-stim", "stimulus": "<div class = centerbox style = text-align:center><p style = font-size:50px>Same or different? </p></div>", "internal_node_id": "0.0-25.0", "response": ["different"], "time_elapsed": 67593, "key_press": 48, "correct": true, "trial_index": 25}, {"rt": -1, "trial_type": "single-stim", "stimulus": "<div class = centerbox style = text-align:center><p style = font-size:40px><span class = 'large' style = 'color:green'>Correct!</span> </p></div>", "time_elapsed": 69098, "internal_node_id": "0.0-26.0", "key_press": -1, "trial_index": 26}, {"rt": -1, "trial_type": "single-stim", "stimulus": "<div class = imageBox><img class = image src = img/line_images/23_target_01_01.png </img></div>", "time_elapsed": 70300, "internal_node_id": "0.0-27.0", "key_press": -1, "trial_index": 27}, {"rt": -1, "trial_type": "single-stim", "stimulus": "<div class = imageBox><img class = image src = img/Pmask2.jpg </img></div>", "trial_id": "mask", "time_elapsed": 71703, "internal_node_id": "0.0-28.0", "key_press": -1, "trial_index": 28}, {"rt": -1, "trial_type": "single-stim", "stimulus": "<div class = imageBox><img class = image src = img/line_images/23_al_02_01.png </img></div>", "time_elapsed": 72906, "internal_node_id": "0.0-29.0", "key_press": -1, "trial_index": 29}, {"rt": -1, "trial_type": "single-stim", "stimulus": "<div class = centerbox style = text-align:center><p style = font-size:50px>Same or different? </p></div>", "internal_node_id": "0.0-30.0", "response": ["different"], "time_elapsed": 74212, "key_press": 49, "correct": false, "trial_index": 30}, {"rt": -1, "trial_type": "single-stim", "stimulus": "<div class = centerbox style = text-align:center><p style = font-size:40px><span class = 'large' style = 'color:red'>Incorrect</span> </p></div>", "time_elapsed": 75719, "internal_node_id": "0.0-31.0", "key_press": -1, "trial_index": 31}, {"rt": -1, "trial_type": "single-stim", "stimulus": "<div class = imageBox><img class = image src = img/line_images/23_target_01_01.png </img></div>", "time_elapsed": 76926, "internal_node_id": "0.0-32.0", "key_press": -1, "trial_index": 32}, {"rt": -1, "trial_type": "single-stim", "stimulus": "<div class = imageBox><img class = image src = img/Pmask2.jpg </img></div>", "trial_id": "mask", "time_elapsed": 78328, "internal_node_id": "0.0-33.0", "key_press": -1, "trial_index": 33}, {"rt": -1, "trial_type": "single-stim", "stimulus": "<div class = imageBox><img class = image src = img/line_images/23_al_01_01.png </img></div>", "time_elapsed": 79530, "internal_node_id": "0.0-34.0", "key_press": -1, "trial_index": 34}, {"rt": -1, "trial_type": "single-stim", "stimulus": "<div class = centerbox style = text-align:center><p style = font-size:50px>Same or different? </p></div>", "internal_node_id": "0.0-35.0", "response": ["same"], "time_elapsed": 80633, "key_press": 49, "correct": true, "trial_index": 35}, {"rt": -1, "trial_type": "single-stim", "stimulus": "<div class = centerbox style = text-align:center><p style = font-size:40px><span class = 'large' style = 'color:green'>Correct!</span> </p></div>", "time_elapsed": 82139, "internal_node_id": "0.0-36.0", "key_press": -1, "trial_index": 36}, {"rt": -1, "trial_type": "single-stim", "stimulus": "<div class = imageBox><img class = image src = img/line_images/22_target_01_01.png </img></div>", "time_elapsed": 83342, "internal_node_id": "0.0-37.0", "key_press": -1, "trial_index": 37}, {"rt": -1, "trial_type": "single-stim", "stimulus": "<div class = imageBox><img class = image src = img/Pmask1.jpg </img></div>", "trial_id": "mask", "time_elapsed": 84745, "internal_node_id": "0.0-38.0", "key_press": -1, "trial_index": 38}, {"rt": -1, "trial_type": "single-stim", "stimulus": "<div class = imageBox><img class = image src = img/line_images/22_mis_02_02.png </img></div>", "time_elapsed": 85950, "internal_node_id": "0.0-39.0", "key_press": -1, "trial_index": 39}, {"rt": -1, "trial_type": "single-stim", "stimulus": "<div class = centerbox style = text-align:center><p style = font-size:50px>Same or different? </p></div>", "internal_node_id": "0.0-40.0", "response": ["different"], "time_elapsed": 87216, "key_press": 48, "correct": true, "trial_index": 40}, {"rt": -1, "trial_type": "single-stim", "stimulus": "<div class = centerbox style = text-align:center><p style = font-size:40px><span class = 'large' style = 'color:green'>Correct!</span> </p></div>", "time_elapsed": 88742, "internal_node_id": "0.0-41.0", "key_press": -1, "trial_index": 41}, {"rt": -1, "trial_type": "text", "time_elapsed": 98304, "internal_node_id": "0.0-42.0", "key_press": 13, "trial_index": 42}, {"rt": -1, "trial_type": "single-stim", "stimulus": "<div class = imageBox><img class = image src = img/line_images/1_target_01_01.png </img></div>", "trial_id": "target", "time_elapsed": 100508, "internal_node_id": "0.0-43.0", "key_press": -1, "trial_index": 43}, {"rt": -1, "trial_type": "single-stim", "stimulus": "<div class = imageBox><img class = image src = img/Pmask2.jpg </img></div>", "trial_id": "mask", "time_elapsed": 101910, "internal_node_id": "0.0-44.0", "key_press": -1, "trial_index": 44}, {"rt": -1, "trial_type": "single-stim", "stimulus": "<div class = imageBox><img class = image src = img/line_images/1_al_01_01.png </img></div>", "trial_id": "probe", "time_elapsed": 103113, "internal_node_id": "0.0-45.0", "key_press": -1, "trial_index": 45}, {"rt": 930, "trial_type": "single-stim", "stimulus": "<div class = centerbox style = text-align:center><p style = font-size:50px>Same or different? </p></div>", "trial_id": "response_line", "time_elapsed": 105046, "response": ["same"], "internal_node_id": "0.0-46.0", "key_press": 49, "trial_index": 46, "congruency": ["congruent"], "correct": true, "alignment": ["aligned"]}, {"rt": -1, "trial_type": "single-stim", "stimulus": "<div class = imageBox><img class = image src = img/line_images/2_target_01_01.png </img></div>", "trial_id": "target", "time_elapsed": 106251, "internal_node_id": "0.0-47.0", "key_press": -1, "trial_index": 47}, {"rt": -1, "trial_type": "single-stim", "stimulus": "<div class = imageBox><img class = image src = img/Pmask2.jpg </img></div>", "trial_id": "mask", "time_elapsed": 107655, "internal_node_id": "0.0-48.0", "key_press": -1, "trial_index": 48}, {"rt": -1, "trial_type": "single-stim", "stimulus": "<div class = imageBox><img class = image src = img/line_images/2_al_02_02.png </img></div>", "trial_id": "probe", "time_elapsed": 108858, "internal_node_id": "0.0-49.0", "key_press": -1, "trial_index": 49}, {"rt": 310, "trial_type": "single-stim", "stimulus": "<div class = centerbox style = text-align:center><p style = font-size:50px>Same or different? </p></div>", "trial_id": "response_line", "time_elapsed": 110172, "response": ["different"], "internal_node_id": "0.0-50.0", "key_press": 48, "trial_index": 50, "congruency": ["congruent"], "correct": true, "alignment": ["aligned"]}, {"rt": -1, "trial_type": "single-stim", "stimulus": "<div class = imageBox><img class = image src = img/line_images/2_target_01_01.png </img></div>", "trial_id": "target", "time_elapsed": 111375, "internal_node_id": "0.0-51.0", "key_press": -1, "trial_index": 51}, {"rt": -1, "trial_type": "single-stim", "stimulus": "<div class = imageBox><img class = image src = img/Pmask3.jpg </img></div>", "trial_id": "mask", "time_elapsed": 112779, "internal_node_id": "0.0-52.0", "key_press": -1, "trial_index": 52}, {"rt": -1, "trial_type": "single-stim", "stimulus": "<div class = imageBox><img class = image src = img/line_images/2_mis_01_02.png </img></div>", "trial_id": "probe", "time_elapsed": 113982, "internal_node_id": "0.0-53.0", "key_press": -1, "trial_index": 53}, {"rt": 255, "trial_type": "single-stim", "stimulus": "<div class = centerbox style = text-align:center><p style = font-size:50px>Same or different? </p></div>", "trial_id": "response_line", "time_elapsed": 115239, "response": ["same"], "internal_node_id": "0.0-54.0", "key_press": 48, "trial_index": 54, "congruency": ["incongruent"], "correct": false, "alignment": ["misaligned"]}, {"rt": -1, "trial_type": "single-stim", "stimulus": "<div class = imageBox><img class = image src = img/line_images/4_target_01_01.png </img></div>", "trial_id": "target", "time_elapsed": 116442, "internal_node_id": "0.0-55.0", "key_press": -1, "trial_index": 55}, {"rt": -1, "trial_type": "single-stim", "stimulus": "<div class = imageBox><img class = image src = img/Pmask4.jpg </img></div>", "trial_id": "mask", "time_elapsed": 117845, "internal_node_id": "0.0-56.0", "key_press": -1, "trial_index": 56}, {"rt": -1, "trial_type": "single-stim", "stimulus": "<div class = imageBox><img class = image src = img/line_images/4_al_01_01.png </img></div>", "trial_id": "probe", "time_elapsed": 119048, "internal_node_id": "0.0-57.0", "key_press": -1, "trial_index": 57}, {"rt": 225, "trial_type": "single-stim", "stimulus": "<div class = centerbox style = text-align:center><p style = font-size:50px>Same or different? </p></div>", "trial_id": "response_line", "time_elapsed": 120275, "response": ["same"], "internal_node_id": "0.0-58.0", "key_press": 49, "trial_index": 58, "congruency": ["congruent"], "correct": true, "alignment": ["aligned"]}, {"rt": -1, "trial_type": "single-stim", "stimulus": "<div class = imageBox><img class = image src = img/line_images/14_target_01_01.png </img></div>", "trial_id": "target", "time_elapsed": 121480, "internal_node_id": "0.0-59.0", "key_press": -1, "trial_index": 59}, {"rt": -1, "trial_type": "single-stim", "stimulus": "<div class = imageBox><img class = image src = img/Pmask2.jpg </img></div>", "trial_id": "mask", "time_elapsed": 122892, "internal_node_id": "0.0-60.0", "key_press": -1, "trial_index": 60}, {"rt": -1, "trial_type": "single-stim", "stimulus": "<div class = imageBox><img class = image src = img/line_images/14_al_02_02.png </img></div>", "trial_id": "probe", "time_elapsed": 124095, "internal_node_id": "0.0-61.0", "key_press": -1, "trial_index": 61}, {"rt": 8, "trial_type": "single-stim", "stimulus": "<div class = centerbox style = text-align:center><p style = font-size:50px>Same or different? </p></div>", "trial_id": "response_line", "time_elapsed": 125105, "response": ["different"], "internal_node_id": "0.0-62.0", "key_press": 48, "trial_index": 62, "congruency": ["congruent"], "correct": true, "alignment": ["aligned"]}, {"rt": -1, "trial_type": "single-stim", "stimulus": "<div class = imageBox><img class = image src = img/line_images/6_target_01_01.png </img></div>", "trial_id": "target", "time_elapsed": 126309, "internal_node_id": "0.0-63.0", "key_press": -1, "trial_index": 63}, {"rt": -1, "trial_type": "single-stim", "stimulus": "<div class = imageBox><img class = image src = img/Pmask2.jpg </img></div>", "trial_id": "mask", "time_elapsed": 127714, "internal_node_id": "0.0-64.0", "key_press": -1, "trial_index": 64}, {"rt": -1, "trial_type": "single-stim", "stimulus": "<div class = imageBox><img class = image src = img/line_images/6_al_01_01.png </img></div>", "trial_id": "probe", "time_elapsed": 128916, "internal_node_id": "0.0-65.0", "key_press": -1, "trial_index": 65}, {"rt": 3076, "trial_type": "single-stim", "stimulus": "<div class = centerbox style = text-align:center><p style = font-size:50px>Same or different? </p></div>", "trial_id": "response_line", "time_elapsed": 132996, "response": ["same"], "internal_node_id": "0.0-66.0", "key_press": 49, "trial_index": 66, "congruency": ["congruent"], "correct": true, "alignment": ["aligned"]}, {"rt": -1, "trial_type": "single-stim", "stimulus": "<div class = imageBox><img class = image src = img/line_images/8_target_01_01.png </img></div>", "trial_id": "target", "time_elapsed": 134200, "internal_node_id": "0.0-67.0", "key_press": -1, "trial_index": 67}, {"rt": -1, "trial_type": "single-stim", "stimulus": "<div class = imageBox><img class = image src = img/Pmask1.jpg </img></div>", "trial_id": "mask", "time_elapsed": 135602, "internal_node_id": "0.0-68.0", "key_press": -1, "trial_index": 68}, {"rt": -1, "trial_type": "single-stim", "stimulus": "<div class = imageBox><img class = image src = img/line_images/8_mis_02_02.png </img></div>", "trial_id": "probe", "time_elapsed": 136806, "internal_node_id": "0.0-69.0", "key_press": -1, "trial_index": 69}, {"rt": 542, "trial_type": "single-stim", "stimulus": "<div class = centerbox style = text-align:center><p style = font-size:50px>Same or different? </p></div>", "trial_id": "response_line", "time_elapsed": 138350, "response": ["different"], "internal_node_id": "0.0-70.0", "key_press": 48, "trial_index": 70, "congruency": ["congruent"], "correct": true, "alignment": ["misaligned"]}, {"rt": -1, "trial_type": "single-stim", "stimulus": "<div class = imageBox><img class = image src = img/line_images/19_target_01_01.png </img></div>", "trial_id": "target", "time_elapsed": 139554, "internal_node_id": "0.0-71.0", "key_press": -1, "trial_index": 71}, {"rt": -1, "trial_type": "single-stim", "stimulus": "<div class = imageBox><img class = image src = img/Pmask5.jpg </img></div>", "trial_id": "mask", "time_elapsed": 140957, "internal_node_id": "0.0-72.0", "key_press": -1, "trial_index": 72}, {"rt": -1, "trial_type": "single-stim", "stimulus": "<div class = imageBox><img class = image src = img/line_images/19_al_01_02.png </img></div>", "trial_id": "probe", "time_elapsed": 142160, "internal_node_id": "0.0-73.0", "key_press": -1, "trial_index": 73}, {"rt": 2176, "trial_type": "single-stim", "stimulus": "<div class = centerbox style = text-align:center><p style = font-size:50px>Same or different? </p></div>", "trial_id": "response_line", "time_elapsed": 145340, "response": ["same"], "internal_node_id": "0.0-74.0", "key_press": 48, "trial_index": 74, "congruency": ["incongruent"], "correct": false, "alignment": ["aligned"]}, {"rt": -1, "trial_type": "single-stim", "stimulus": "<div class = imageBox><img class = image src = img/line_images/7_target_01_01.png </img></div>", "trial_id": "target", "time_elapsed": 146542, "internal_node_id": "0.0-75.0", "key_press": -1, "trial_index": 75}, {"rt": -1, "trial_type": "single-stim", "stimulus": "<div class = imageBox><img class = image src = img/Pmask4.jpg </img></div>", "trial_id": "mask", "time_elapsed": 147945, "internal_node_id": "0.0-76.0", "key_press": -1, "trial_index": 76}, {"rt": -1, "trial_type": "single-stim", "stimulus": "<div class = imageBox><img class = image src = img/line_images/7_mis_02_02.png </img></div>", "trial_id": "probe", "time_elapsed": 149149, "internal_node_id": "0.0-77.0", "key_press": -1, "trial_index": 77}, {"rt": 257, "trial_type": "single-stim", "stimulus": "<div class = centerbox style = text-align:center><p style = font-size:50px>Same or different? </p></div>", "trial_id": "response_line", "time_elapsed": 150408, "response": ["different"], "internal_node_id": "0.0-78.0", "key_press": 48, "trial_index": 78, "congruency": ["congruent"], "correct": true, "alignment": ["misaligned"]}, {"rt": -1, "trial_type": "single-stim", "stimulus": "<div class = imageBox><img class = image src = img/line_images/12_target_01_01.png </img></div>", "trial_id": "target", "time_elapsed": 151611, "internal_node_id": "0.0-79.0", "key_press": -1, "trial_index": 79}, {"rt": -1, "trial_type": "single-stim", "stimulus": "<div class = imageBox><img class = image src = img/Pmask2.jpg </img></div>", "trial_id": "mask", "time_elapsed": 153015, "internal_node_id": "0.0-80.0", "key_press": -1, "trial_index": 80}, {"rt": -1, "trial_type": "single-stim", "stimulus": "<div class = imageBox><img class = image src = img/line_images/12_al_02_01.png </img></div>", "trial_id": "probe", "time_elapsed": 154218, "internal_node_id": "0.0-81.0", "key_press": -1, "trial_index": 81}, {"rt": 323, "trial_type": "single-stim", "stimulus": "<div class = centerbox style = text-align:center><p style = font-size:50px>Same or different? </p></div>", "trial_id": "response_line", "time_elapsed": 155543, "response": ["different"], "internal_node_id": "0.0-82.0", "key_press": 49, "trial_index": 82, "congruency": ["incongruent"], "correct": false, "alignment": ["aligned"]}, {"rt": -1, "trial_type": "single-stim", "stimulus": "<div class = imageBox><img class = image src = img/line_images/5_target_01_01.png </img></div>", "trial_id": "target", "time_elapsed": 156746, "internal_node_id": "0.0-83.0", "key_press": -1, "trial_index": 83}, {"rt": -1, "trial_type": "single-stim", "stimulus": "<div class = imageBox><img class = image src = img/Pmask2.jpg </img></div>", "trial_id": "mask", "time_elapsed": 158151, "internal_node_id": "0.0-84.0", "key_press": -1, "trial_index": 84}, {"rt": -1, "trial_type": "single-stim", "stimulus": "<div class = imageBox><img class = image src = img/line_images/5_al_02_02.png </img></div>", "trial_id": "probe", "time_elapsed": 159355, "internal_node_id": "0.0-85.0", "key_press": -1, "trial_index": 85}, {"rt": 265, "trial_type": "single-stim", "stimulus": "<div class = centerbox style = text-align:center><p style = font-size:50px>Same or different? </p></div>", "trial_id": "response_line", "time_elapsed": 160621, "response": ["different"], "internal_node_id": "0.0-86.0", "key_press": 48, "trial_index": 86, "congruency": ["congruent"], "correct": true, "alignment": ["aligned"]}, {"rt": -1, "trial_type": "single-stim", "stimulus": "<div class = imageBox><img class = image src = img/line_images/7_target_01_01.png </img></div>", "trial_id": "target", "time_elapsed": 161828, "internal_node_id": "0.0-87.0", "key_press": -1, "trial_index": 87}, {"rt": -1, "trial_type": "single-stim", "stimulus": "<div class = imageBox><img class = image src = img/Pmask2.jpg </img></div>", "trial_id": "mask", "time_elapsed": 163232, "internal_node_id": "0.0-88.0", "key_press": -1, "trial_index": 88}, {"rt": -1, "trial_type": "single-stim", "stimulus": "<div class = imageBox><img class = image src = img/line_images/7_mis_01_01.png </img></div>", "trial_id": "probe", "time_elapsed": 164436, "internal_node_id": "0.0-89.0", "key_press": -1, "trial_index": 89}, {"rt": 193, "trial_type": "single-stim", "stimulus": "<div class = centerbox style = text-align:center><p style = font-size:50px>Same or different? </p></div>", "trial_id": "response_line", "time_elapsed": 165631, "response": ["same"], "internal_node_id": "0.0-90.0", "key_press": 48, "trial_index": 90, "congruency": ["congruent"], "correct": false, "alignment": ["misaligned"]}, {"rt": -1, "trial_type": "single-stim", "stimulus": "<div class = imageBox><img class = image src = img/line_images/18_target_01_01.png </img></div>", "trial_id": "target", "time_elapsed": 166835, "internal_node_id": "0.0-91.0", "key_press": -1, "trial_index": 91}, {"rt": -1, "trial_type": "single-stim", "stimulus": "<div class = imageBox><img class = image src = img/Pmask5.jpg </img></div>", "trial_id": "mask", "time_elapsed": 168239, "internal_node_id": "0.0-92.0", "key_press": -1, "trial_index": 92}, {"rt": -1, "trial_type": "single-stim", "stimulus": "<div class = imageBox><img class = image src = img/line_images/18_mis_02_01.png </img></div>", "trial_id": "probe", "time_elapsed": 169444, "internal_node_id": "0.0-93.0", "key_press": -1, "trial_index": 93}, {"rt": 135, "trial_type": "single-stim", "stimulus": "<div class = centerbox style = text-align:center><p style = font-size:50px>Same or different? </p></div>", "trial_id": "response_line", "time_elapsed": 170583, "response": ["different"], "internal_node_id": "0.0-94.0", "key_press": 48, "trial_index": 94, "congruency": ["incongruent"], "correct": true, "alignment": ["misaligned"]}, {"rt": -1, "trial_type": "single-stim", "stimulus": "<div class = imageBox><img class = image src = img/line_images/15_target_01_01.png </img></div>", "trial_id": "target", "time_elapsed": 171786, "internal_node_id": "0.0-95.0", "key_press": -1, "trial_index": 95}, {"rt": -1, "trial_type": "single-stim", "stimulus": "<div class = imageBox><img class = image src = img/Pmask1.jpg </img></div>", "trial_id": "mask", "time_elapsed": 173190, "internal_node_id": "0.0-96.0", "key_press": -1, "trial_index": 96}, {"rt": -1, "trial_type": "single-stim", "stimulus": "<div class = imageBox><img class = image src = img/line_images/15_al_02_02.png </img></div>", "trial_id": "probe", "time_elapsed": 174392, "internal_node_id": "0.0-97.0", "key_press": -1, "trial_index": 97}, {"rt": 171, "trial_type": "single-stim", "stimulus": "<div class = centerbox style = text-align:center><p style = font-size:50px>Same or different? </p></div>", "trial_id": "response_line", "time_elapsed": 175565, "response": ["different"], "internal_node_id": "0.0-98.0", "key_press": 48, "trial_index": 98, "congruency": ["congruent"], "correct": true, "alignment": ["aligned"]}, {"rt": -1, "trial_type": "single-stim", "stimulus": "<div class = imageBox><img class = image src = img/line_images/4_target_01_01.png </img></div>", "trial_id": "target", "time_elapsed": 176768, "internal_node_id": "0.0-99.0", "key_press": -1, "trial_index": 99}, {"rt": -1, "trial_type": "single-stim", "stimulus": "<div class = imageBox><img class = image src = img/Pmask5.jpg </img></div>", "trial_id": "mask", "time_elapsed": 178172, "internal_node_id": "0.0-100.0", "key_press": -1, "trial_index": 100}, {"rt": -1, "trial_type": "single-stim", "stimulus": "<div class = imageBox><img class = image src = img/line_images/4_al_02_01.png </img></div>", "trial_id": "probe", "time_elapsed": 179374, "internal_node_id": "0.0-101.0", "key_press": -1, "trial_index": 101}, {"rt": 26, "trial_type": "single-stim", "stimulus": "<div class = centerbox style = text-align:center><p style = font-size:50px>Same or different? </p></div>", "trial_id": "response_line", "time_elapsed": 180401, "response": ["different"], "internal_node_id": "0.0-102.0", "key_press": 48, "trial_index": 102, "congruency": ["incongruent"], "correct": true, "alignment": ["aligned"]}, {"rt": -1, "trial_type": "single-stim", "stimulus": "<div class = imageBox><img class = image src = img/line_images/20_target_01_01.png </img></div>", "trial_id": "target", "time_elapsed": 181604, "internal_node_id": "0.0-103.0", "key_press": -1, "trial_index": 103}, {"rt": -1, "trial_type": "single-stim", "stimulus": "<div class = imageBox><img class = image src = img/Pmask4.jpg </img></div>", "trial_id": "mask", "time_elapsed": 183006, "internal_node_id": "0.0-104.0", "key_press": -1, "trial_index": 104}, {"rt": -1, "trial_type": "single-stim", "stimulus": "<div class = imageBox><img class = image src = img/line_images/20_al_01_01.png </img></div>", "trial_id": "probe", "time_elapsed": 184210, "internal_node_id": "0.0-105.0", "key_press": -1, "trial_index": 105}, {"rt": 99, "trial_type": "single-stim", "stimulus": "<div class = centerbox style = text-align:center><p style = font-size:50px>Same or different? </p></div>", "trial_id": "response_line", "time_elapsed": 185311, "response": ["same"], "internal_node_id": "0.0-106.0", "key_press": 49, "trial_index": 106, "congruency": ["congruent"], "correct": true, "alignment": ["aligned"]}, {"rt": -1, "trial_type": "single-stim", "stimulus": "<div class = imageBox><img class = image src = img/line_images/14_target_01_01.png </img></div>", "trial_id": "target", "time_elapsed": 186518, "internal_node_id": "0.0-107.0", "key_press": -1, "trial_index": 107}, {"rt": -1, "trial_type": "single-stim", "stimulus": "<div class = imageBox><img class = image src = img/Pmask5.jpg </img></div>", "trial_id": "mask", "time_elapsed": 187922, "internal_node_id": "0.0-108.0", "key_press": -1, "trial_index": 108}, {"rt": -1, "trial_type": "single-stim", "stimulus": "<div class = imageBox><img class = image src = img/line_images/14_mis_01_02.png </img></div>", "trial_id": "probe", "time_elapsed": 189126, "internal_node_id": "0.0-109.0", "key_press": -1, "trial_index": 109}, {"rt": 157, "trial_type": "single-stim", "stimulus": "<div class = centerbox style = text-align:center><p style = font-size:50px>Same or different? </p></div>", "trial_id": "response_line", "time_elapsed": 190285, "response": ["same"], "internal_node_id": "0.0-110.0", "key_press": 48, "trial_index": 110, "congruency": ["incongruent"], "correct": false, "alignment": ["misaligned"]}, {"rt": -1, "trial_type": "single-stim", "stimulus": "<div class = imageBox><img class = image src = img/line_images/12_target_01_01.png </img></div>", "trial_id": "target", "time_elapsed": 191491, "internal_node_id": "0.0-111.0", "key_press": -1, "trial_index": 111}, {"rt": -1, "trial_type": "single-stim", "stimulus": "<div class = imageBox><img class = image src = img/Pmask5.jpg </img></div>", "trial_id": "mask", "time_elapsed": 192894, "internal_node_id": "0.0-112.0", "key_press": -1, "trial_index": 112}, {"rt": -1, "trial_type": "single-stim", "stimulus": "<div class = imageBox><img class = image src = img/line_images/12_mis_01_02.png </img></div>", "trial_id": "probe", "time_elapsed": 194096, "internal_node_id": "0.0-113.0", "key_press": -1, "trial_index": 113}, {"rt": 1371, "trial_type": "single-stim", "stimulus": "<div class = centerbox style = text-align:center><p style = font-size:50px>Same or different? </p></div>", "trial_id": "response_line", "time_elapsed": 196469, "response": ["same"], "internal_node_id": "0.0-114.0", "key_press": 48, "trial_index": 114, "congruency": ["incongruent"], "correct": false, "alignment": ["misaligned"]}, {"rt": -1, "trial_type": "single-stim", "stimulus": "<div class = imageBox><img class = image src = img/line_images/15_target_01_01.png </img></div>", "trial_id": "target", "time_elapsed": 197674, "internal_node_id": "0.0-115.0", "key_press": -1, "trial_index": 115}, {"rt": -1, "trial_type": "single-stim", "stimulus": "<div class = imageBox><img class = image src = img/Pmask3.jpg </img></div>", "trial_id": "mask", "time_elapsed": 199078, "internal_node_id": "0.0-116.0", "key_press": -1, "trial_index": 116}, {"rt": -1, "trial_type": "single-stim", "stimulus": "<div class = imageBox><img class = image src = img/line_images/15_al_02_01.png </img></div>", "trial_id": "probe", "time_elapsed": 200281, "internal_node_id": "0.0-117.0", "key_press": -1, "trial_index": 117}, {"rt": 321, "trial_type": "single-stim", "stimulus": "<div class = centerbox style = text-align:center><p style = font-size:50px>Same or different? </p></div>", "trial_id": "response_line", "time_elapsed": 201605, "response": ["different"], "internal_node_id": "0.0-118.0", "key_press": 48, "trial_index": 118, "congruency": ["incongruent"], "correct": true, "alignment": ["aligned"]}, {"rt": -1, "trial_type": "single-stim", "stimulus": "<div class = imageBox><img class = image src = img/line_images/9_target_01_01.png </img></div>", "trial_id": "target", "time_elapsed": 202808, "internal_node_id": "0.0-119.0", "key_press": -1, "trial_index": 119}, {"rt": -1, "trial_type": "single-stim", "stimulus": "<div class = imageBox><img class = image src = img/Pmask2.jpg </img></div>", "trial_id": "mask", "time_elapsed": 204211, "internal_node_id": "0.0-120.0", "key_press": -1, "trial_index": 120}, {"rt": -1, "trial_type": "single-stim", "stimulus": "<div class = imageBox><img class = image src = img/line_images/9_mis_01_01.png </img></div>", "trial_id": "probe", "time_elapsed": 205414, "internal_node_id": "0.0-121.0", "key_press": -1, "trial_index": 121}, {"rt": 280, "trial_type": "single-stim", "stimulus": "<div class = centerbox style = text-align:center><p style = font-size:50px>Same or different? </p></div>", "trial_id": "response_line", "time_elapsed": 206697, "response": ["same"], "internal_node_id": "0.0-122.0", "key_press": 48, "trial_index": 122, "congruency": ["congruent"], "correct": false, "alignment": ["misaligned"]}, {"rt": -1, "trial_type": "single-stim", "stimulus": "<div class = imageBox><img class = image src = img/line_images/11_target_01_01.png </img></div>", "trial_id": "target", "time_elapsed": 207908, "internal_node_id": "0.0-123.0", "key_press": -1, "trial_index": 123}, {"rt": -1, "trial_type": "single-stim", "stimulus": "<div class = imageBox><img class = image src = img/Pmask4.jpg </img></div>", "trial_id": "mask", "time_elapsed": 209320, "internal_node_id": "0.0-124.0", "key_press": -1, "trial_index": 124}, {"rt": -1, "trial_type": "single-stim", "stimulus": "<div class = imageBox><img class = image src = img/line_images/11_al_02_02.png </img></div>", "trial_id": "probe", "time_elapsed": 210524, "internal_node_id": "0.0-125.0", "key_press": -1, "trial_index": 125}, {"rt": 358, "trial_type": "single-stim", "stimulus": "<div class = centerbox style = text-align:center><p style = font-size:50px>Same or different? </p></div>", "trial_id": "response_line", "time_elapsed": 211885, "response": ["different"], "internal_node_id": "0.0-126.0", "key_press": 48, "trial_index": 126, "congruency": ["congruent"], "correct": true, "alignment": ["aligned"]}, {"rt": -1, "trial_type": "single-stim", "stimulus": "<div class = imageBox><img class = image src = img/line_images/15_target_01_01.png </img></div>", "trial_id": "target", "time_elapsed": 213087, "internal_node_id": "0.0-127.0", "key_press": -1, "trial_index": 127}, {"rt": -1, "trial_type": "single-stim", "stimulus": "<div class = imageBox><img class = image src = img/Pmask4.jpg </img></div>", "trial_id": "mask", "time_elapsed": 214489, "internal_node_id": "0.0-128.0", "key_press": -1, "trial_index": 128}, {"rt": -1, "trial_type": "single-stim", "stimulus": "<div class = imageBox><img class = image src = img/line_images/15_mis_01_02.png </img></div>", "trial_id": "probe", "time_elapsed": 215692, "internal_node_id": "0.0-129.0", "key_press": -1, "trial_index": 129}, {"rt": 122, "trial_type": "single-stim", "stimulus": "<div class = centerbox style = text-align:center><p style = font-size:50px>Same or different? </p></div>", "trial_id": "response_line", "time_elapsed": 216817, "response": ["same"], "internal_node_id": "0.0-130.0", "key_press": 48, "trial_index": 130, "congruency": ["incongruent"], "correct": false, "alignment": ["misaligned"]}, {"rt": -1, "trial_type": "single-stim", "stimulus": "<div class = imageBox><img class = image src = img/line_images/8_target_01_01.png </img></div>", "trial_id": "target", "time_elapsed": 218020, "internal_node_id": "0.0-131.0", "key_press": -1, "trial_index": 131}, {"rt": -1, "trial_type": "single-stim", "stimulus": "<div class = imageBox><img class = image src = img/Pmask3.jpg </img></div>", "trial_id": "mask", "time_elapsed": 219423, "internal_node_id": "0.0-132.0", "key_press": -1, "trial_index": 132}, {"rt": -1, "trial_type": "single-stim", "stimulus": "<div class = imageBox><img class = image src = img/line_images/8_al_02_02.png </img></div>", "trial_id": "probe", "time_elapsed": 220628, "internal_node_id": "0.0-133.0", "key_press": -1, "trial_index": 133}, {"rt": 157, "trial_type": "single-stim", "stimulus": "<div class = centerbox style = text-align:center><p style = font-size:50px>Same or different? </p></div>", "trial_id": "response_line", "time_elapsed": 221789, "response": ["different"], "internal_node_id": "0.0-134.0", "key_press": 49, "trial_index": 134, "congruency": ["congruent"], "correct": false, "alignment": ["aligned"]}, {"rt": -1, "trial_type": "single-stim", "stimulus": "<div class = imageBox><img class = image src = img/line_images/20_target_01_01.png </img></div>", "trial_id": "target", "time_elapsed": 222992, "internal_node_id": "0.0-135.0", "key_press": -1, "trial_index": 135}, {"rt": -1, "trial_type": "single-stim", "stimulus": "<div class = imageBox><img class = image src = img/Pmask3.jpg </img></div>", "trial_id": "mask", "time_elapsed": 224395, "internal_node_id": "0.0-136.0", "key_press": -1, "trial_index": 136}, {"rt": -1, "trial_type": "single-stim", "stimulus": "<div class = imageBox><img class = image src = img/line_images/20_mis_02_01.png </img></div>", "trial_id": "probe", "time_elapsed": 225597, "internal_node_id": "0.0-137.0", "key_press": -1, "trial_index": 137}, {"rt": 68, "trial_type": "single-stim", "stimulus": "<div class = centerbox style = text-align:center><p style = font-size:50px>Same or different? </p></div>", "trial_id": "response_line", "time_elapsed": 226668, "response": ["different"], "internal_node_id": "0.0-138.0", "key_press": 48, "trial_index": 138, "congruency": ["incongruent"], "correct": true, "alignment": ["misaligned"]}, {"rt": -1, "trial_type": "single-stim", "stimulus": "<div class = imageBox><img class = image src = img/line_images/13_target_01_01.png </img></div>", "trial_id": "target", "time_elapsed": 227872, "internal_node_id": "0.0-139.0", "key_press": -1, "trial_index": 139}, {"rt": -1, "trial_type": "single-stim", "stimulus": "<div class = imageBox><img class = image src = img/Pmask5.jpg </img></div>", "trial_id": "mask", "time_elapsed": 229277, "internal_node_id": "0.0-140.0", "key_press": -1, "trial_index": 140}, {"rt": -1, "trial_type": "single-stim", "stimulus": "<div class = imageBox><img class = image src = img/line_images/13_mis_02_01.png </img></div>", "trial_id": "probe", "time_elapsed": 230483, "internal_node_id": "0.0-141.0", "key_press": -1, "trial_index": 141}, {"rt": 203, "trial_type": "single-stim", "stimulus": "<div class = centerbox style = text-align:center><p style = font-size:50px>Same or different? </p></div>", "trial_id": "response_line", "time_elapsed": 231688, "response": ["different"], "internal_node_id": "0.0-142.0", "key_press": 48, "trial_index": 142, "congruency": ["incongruent"], "correct": true, "alignment": ["misaligned"]}, {"rt": -1, "trial_type": "single-stim", "stimulus": "<div class = imageBox><img class = image src = img/line_images/19_target_01_01.png </img></div>", "trial_id": "target", "time_elapsed": 232891, "internal_node_id": "0.0-143.0", "key_press": -1, "trial_index": 143}, {"rt": -1, "trial_type": "single-stim", "stimulus": "<div class = imageBox><img class = image src = img/Pmask5.jpg </img></div>", "trial_id": "mask", "time_elapsed": 234294, "internal_node_id": "0.0-144.0", "key_press": -1, "trial_index": 144}, {"rt": -1, "trial_type": "single-stim", "stimulus": "<div class = imageBox><img class = image src = img/line_images/19_al_02_01.png </img></div>", "trial_id": "probe", "time_elapsed": 235496, "internal_node_id": "0.0-145.0", "key_press": -1, "trial_index": 145}, {"rt": 226, "trial_type": "single-stim", "stimulus": "<div class = centerbox style = text-align:center><p style = font-size:50px>Same or different? </p></div>", "trial_id": "response_line", "time_elapsed": 236725, "response": ["different"], "internal_node_id": "0.0-146.0", "key_press": 48, "trial_index": 146, "congruency": ["incongruent"], "correct": true, "alignment": ["aligned"]}, {"rt": -1, "trial_type": "single-stim", "stimulus": "<div class = imageBox><img class = image src = img/line_images/12_target_01_01.png </img></div>", "trial_id": "target", "time_elapsed": 237929, "internal_node_id": "0.0-147.0", "key_press": -1, "trial_index": 147}, {"rt": -1, "trial_type": "single-stim", "stimulus": "<div class = imageBox><img class = image src = img/Pmask3.jpg </img></div>", "trial_id": "mask", "time_elapsed": 239332, "internal_node_id": "0.0-148.0", "key_press": -1, "trial_index": 148}, {"rt": -1, "trial_type": "single-stim", "stimulus": "<div class = imageBox><img class = image src = img/line_images/12_mis_01_01.png </img></div>", "trial_id": "probe", "time_elapsed": 240539, "internal_node_id": "0.0-149.0", "key_press": -1, "trial_index": 149}, {"rt": 155, "trial_type": "single-stim", "stimulus": "<div class = centerbox style = text-align:center><p style = font-size:50px>Same or different? </p></div>", "trial_id": "response_line", "time_elapsed": 241696, "response": ["same"], "internal_node_id": "0.0-150.0", "key_press": 48, "trial_index": 150, "congruency": ["congruent"], "correct": false, "alignment": ["misaligned"]}, {"rt": -1, "trial_type": "single-stim", "stimulus": "<div class = imageBox><img class = image src = img/line_images/14_target_01_01.png </img></div>", "trial_id": "target", "time_elapsed": 242900, "internal_node_id": "0.0-151.0", "key_press": -1, "trial_index": 151}, {"rt": -1, "trial_type": "single-stim", "stimulus": "<div class = imageBox><img class = image src = img/Pmask5.jpg </img></div>", "trial_id": "mask", "time_elapsed": 244303, "internal_node_id": "0.0-152.0", "key_press": -1, "trial_index": 152}, {"rt": -1, "trial_type": "single-stim", "stimulus": "<div class = imageBox><img class = image src = img/line_images/14_al_01_01.png </img></div>", "trial_id": "probe", "time_elapsed": 245505, "internal_node_id": "0.0-153.0", "key_press": -1, "trial_index": 153}, {"rt": 504, "trial_type": "single-stim", "stimulus": "<div class = centerbox style = text-align:center><p style = font-size:50px>Same or different? </p></div>", "trial_id": "response_line", "time_elapsed": 247013, "response": ["same"], "internal_node_id": "0.0-154.0", "key_press": 49, "trial_index": 154, "congruency": ["congruent"], "correct": true, "alignment": ["aligned"]}, {"rt": -1, "trial_type": "single-stim", "stimulus": "<div class = imageBox><img class = image src = img/line_images/12_target_01_01.png </img></div>", "trial_id": "target", "time_elapsed": 248217, "internal_node_id": "0.0-155.0", "key_press": -1, "trial_index": 155}, {"rt": -1, "trial_type": "single-stim", "stimulus": "<div class = imageBox><img class = image src = img/Pmask5.jpg </img></div>", "trial_id": "mask", "time_elapsed": 249621, "internal_node_id": "0.0-156.0", "key_press": -1, "trial_index": 156}, {"rt": -1, "trial_type": "single-stim", "stimulus": "<div class = imageBox><img class = image src = img/line_images/12_al_01_01.png </img></div>", "trial_id": "probe", "time_elapsed": 250823, "internal_node_id": "0.0-157.0", "key_press": -1, "trial_index": 157}, {"rt": 128, "trial_type": "single-stim", "stimulus": "<div class = centerbox style = text-align:center><p style = font-size:50px>Same or different? </p></div>", "trial_id": "response_line", "time_elapsed": 251953, "response": ["same"], "internal_node_id": "0.0-158.0", "key_press": 49, "trial_index": 158, "congruency": ["congruent"], "correct": true, "alignment": ["aligned"]}, {"rt": -1, "trial_type": "single-stim", "stimulus": "<div class = imageBox><img class = image src = img/line_images/7_target_01_01.png </img></div>", "trial_id": "target", "time_elapsed": 253157, "internal_node_id": "0.0-159.0", "key_press": -1, "trial_index": 159}, {"rt": -1, "trial_type": "single-stim", "stimulus": "<div class = imageBox><img class = image src = img/Pmask1.jpg </img></div>", "trial_id": "mask", "time_elapsed": 254561, "internal_node_id": "0.0-160.0", "key_press": -1, "trial_index": 160}, {"rt": -1, "trial_type": "single-stim", "stimulus": "<div class = imageBox><img class = image src = img/line_images/7_al_02_01.png </img></div>", "trial_id": "probe", "time_elapsed": 255763, "internal_node_id": "0.0-161.0", "key_press": -1, "trial_index": 161}, {"rt": 286, "trial_type": "single-stim", "stimulus": "<div class = centerbox style = text-align:center><p style = font-size:50px>Same or different? </p></div>", "trial_id": "response_line", "time_elapsed": 257052, "response": ["different"], "internal_node_id": "0.0-162.0", "key_press": 49, "trial_index": 162, "congruency": ["incongruent"], "correct": false, "alignment": ["aligned"]}, {"rt": -1, "trial_type": "single-stim", "stimulus": "<div class = imageBox><img class = image src = img/line_images/15_target_01_01.png </img></div>", "trial_id": "target", "time_elapsed": 258255, "internal_node_id": "0.0-163.0", "key_press": -1, "trial_index": 163}, {"rt": -1, "trial_type": "single-stim", "stimulus": "<div class = imageBox><img class = image src = img/Pmask3.jpg </img></div>", "trial_id": "mask", "time_elapsed": 259658, "internal_node_id": "0.0-164.0", "key_press": -1, "trial_index": 164}, {"rt": -1, "trial_type": "single-stim", "stimulus": "<div class = imageBox><img class = image src = img/line_images/15_al_01_02.png </img></div>", "trial_id": "probe", "time_elapsed": 260862, "internal_node_id": "0.0-165.0", "key_press": -1, "trial_index": 165}, {"rt": 148, "trial_type": "single-stim", "stimulus": "<div class = centerbox style = text-align:center><p style = font-size:50px>Same or different? </p></div>", "trial_id": "response_line", "time_elapsed": 262014, "response": ["same"], "internal_node_id": "0.0-166.0", "key_press": 48, "trial_index": 166, "congruency": ["incongruent"], "correct": false, "alignment": ["aligned"]}, {"rt": -1, "trial_type": "single-stim", "stimulus": "<div class = imageBox><img class = image src = img/line_images/16_target_01_01.png </img></div>", "trial_id": "target", "time_elapsed": 263218, "internal_node_id": "0.0-167.0", "key_press": -1, "trial_index": 167}, {"rt": -1, "trial_type": "single-stim", "stimulus": "<div class = imageBox><img class = image src = img/Pmask1.jpg </img></div>", "trial_id": "mask", "time_elapsed": 264621, "internal_node_id": "0.0-168.0", "key_press": -1, "trial_index": 168}, {"rt": -1, "trial_type": "single-stim", "stimulus": "<div class = imageBox><img class = image src = img/line_images/16_mis_01_02.png </img></div>", "trial_id": "probe", "time_elapsed": 265824, "internal_node_id": "0.0-169.0", "key_press": -1, "trial_index": 169}, {"rt": 97, "trial_type": "single-stim", "stimulus": "<div class = centerbox style = text-align:center><p style = font-size:50px>Same or different? </p></div>", "trial_id": "response_line", "time_elapsed": 266925, "response": ["same"], "internal_node_id": "0.0-170.0", "key_press": 48, "trial_index": 170, "congruency": ["incongruent"], "correct": false, "alignment": ["misaligned"]}, {"rt": -1, "trial_type": "single-stim", "stimulus": "<div class = imageBox><img class = image src = img/line_images/20_target_01_01.png </img></div>", "trial_id": "target", "time_elapsed": 268129, "internal_node_id": "0.0-171.0", "key_press": -1, "trial_index": 171}, {"rt": -1, "trial_type": "single-stim", "stimulus": "<div class = imageBox><img class = image src = img/Pmask3.jpg </img></div>", "trial_id": "mask", "time_elapsed": 269532, "internal_node_id": "0.0-172.0", "key_press": -1, "trial_index": 172}, {"rt": -1, "trial_type": "single-stim", "stimulus": "<div class = imageBox><img class = image src = img/line_images/20_mis_01_02.png </img></div>", "trial_id": "probe", "time_elapsed": 270734, "internal_node_id": "0.0-173.0", "key_press": -1, "trial_index": 173}, {"rt": 29, "trial_type": "single-stim", "stimulus": "<div class = centerbox style = text-align:center><p style = font-size:50px>Same or different? </p></div>", "trial_id": "response_line", "time_elapsed": 271767, "response": ["same"], "internal_node_id": "0.0-174.0", "key_press": 48, "trial_index": 174, "congruency": ["incongruent"], "correct": false, "alignment": ["misaligned"]}, {"rt": -1, "trial_type": "single-stim", "stimulus": "<div class = imageBox><img class = image src = img/line_images/6_target_01_01.png </img></div>", "trial_id": "target", "time_elapsed": 272971, "internal_node_id": "0.0-175.0", "key_press": -1, "trial_index": 175}, {"rt": -1, "trial_type": "single-stim", "stimulus": "<div class = imageBox><img class = image src = img/Pmask4.jpg </img></div>", "trial_id": "mask", "time_elapsed": 274375, "internal_node_id": "0.0-176.0", "key_press": -1, "trial_index": 176}, {"rt": -1, "trial_type": "single-stim", "stimulus": "<div class = imageBox><img class = image src = img/line_images/6_mis_02_01.png </img></div>", "trial_id": "probe", "time_elapsed": 275579, "internal_node_id": "0.0-177.0", "key_press": -1, "trial_index": 177}, {"rt": 223, "trial_type": "single-stim", "stimulus": "<div class = centerbox style = text-align:center><p style = font-size:50px>Same or different? </p></div>", "trial_id": "response_line", "time_elapsed": 276804, "response": ["different"], "internal_node_id": "0.0-178.0", "key_press": 48, "trial_index": 178, "congruency": ["incongruent"], "correct": true, "alignment": ["misaligned"]}, {"rt": -1, "trial_type": "single-stim", "stimulus": "<div class = imageBox><img class = image src = img/line_images/2_target_01_01.png </img></div>", "trial_id": "target", "time_elapsed": 278007, "internal_node_id": "0.0-179.0", "key_press": -1, "trial_index": 179}, {"rt": -1, "trial_type": "single-stim", "stimulus": "<div class = imageBox><img class = image src = img/Pmask4.jpg </img></div>", "trial_id": "mask", "time_elapsed": 279415, "internal_node_id": "0.0-180.0", "key_press": -1, "trial_index": 180}, {"rt": -1, "trial_type": "single-stim", "stimulus": "<div class = imageBox><img class = image src = img/line_images/2_mis_02_02.png </img></div>", "trial_id": "probe", "time_elapsed": 280619, "internal_node_id": "0.0-181.0", "key_press": -1, "trial_index": 181}, {"rt": 325, "trial_type": "single-stim", "stimulus": "<div class = centerbox style = text-align:center><p style = font-size:50px>Same or different? </p></div>", "trial_id": "response_line", "time_elapsed": 281947, "response": ["different"], "internal_node_id": "0.0-182.0", "key_press": 48, "trial_index": 182, "congruency": ["congruent"], "correct": true, "alignment": ["misaligned"]}, {"rt": -1, "trial_type": "single-stim", "stimulus": "<div class = imageBox><img class = image src = img/line_images/10_target_01_01.png </img></div>", "trial_id": "target", "time_elapsed": 283159, "internal_node_id": "0.0-183.0", "key_press": -1, "trial_index": 183}, {"rt": -1, "trial_type": "single-stim", "stimulus": "<div class = imageBox><img class = image src = img/Pmask3.jpg </img></div>", "trial_id": "mask", "time_elapsed": 284562, "internal_node_id": "0.0-184.0", "key_press": -1, "trial_index": 184}, {"rt": -1, "trial_type": "single-stim", "stimulus": "<div class = imageBox><img class = image src = img/line_images/10_al_01_01.png </img></div>", "trial_id": "probe", "time_elapsed": 285765, "internal_node_id": "0.0-185.0", "key_press": -1, "trial_index": 185}, {"rt": 192, "trial_type": "single-stim", "stimulus": "<div class = centerbox style = text-align:center><p style = font-size:50px>Same or different? </p></div>", "trial_id": "response_line", "time_elapsed": 286961, "response": ["same"], "internal_node_id": "0.0-186.0", "key_press": 48, "trial_index": 186, "congruency": ["congruent"], "correct": false, "alignment": ["aligned"]}, {"rt": -1, "trial_type": "single-stim", "stimulus": "<div class = imageBox><img class = image src = img/line_images/2_target_01_01.png </img></div>", "trial_id": "target", "time_elapsed": 288180, "internal_node_id": "0.0-187.0", "key_press": -1, "trial_index": 187}, {"rt": -1, "trial_type": "single-stim", "stimulus": "<div class = imageBox><img class = image src = img/Pmask4.jpg </img></div>", "trial_id": "mask", "time_elapsed": 289584, "internal_node_id": "0.0-188.0", "key_press": -1, "trial_index": 188}, {"rt": -1, "trial_type": "single-stim", "stimulus": "<div class = imageBox><img class = image src = img/line_images/2_al_01_02.png </img></div>", "trial_id": "probe", "time_elapsed": 290787, "internal_node_id": "0.0-189.0", "key_press": -1, "trial_index": 189}, {"rt": 215, "trial_type": "single-stim", "stimulus": "<div class = centerbox style = text-align:center><p style = font-size:50px>Same or different? </p></div>", "trial_id": "response_line", "time_elapsed": 292005, "response": ["same"], "internal_node_id": "0.0-190.0", "key_press": 48, "trial_index": 190, "congruency": ["incongruent"], "correct": false, "alignment": ["aligned"]}, {"rt": -1, "trial_type": "single-stim", "stimulus": "<div class = imageBox><img class = image src = img/line_images/11_target_01_01.png </img></div>", "trial_id": "target", "time_elapsed": 293208, "internal_node_id": "0.0-191.0", "key_press": -1, "trial_index": 191}, {"rt": -1, "trial_type": "single-stim", "stimulus": "<div class = imageBox><img class = image src = img/Pmask5.jpg </img></div>", "trial_id": "mask", "time_elapsed": 294612, "internal_node_id": "0.0-192.0", "key_press": -1, "trial_index": 192}, {"rt": -1, "trial_type": "single-stim", "stimulus": "<div class = imageBox><img class = image src = img/line_images/11_al_01_01.png </img></div>", "trial_id": "probe", "time_elapsed": 295815, "internal_node_id": "0.0-193.0", "key_press": -1, "trial_index": 193}, {"rt": 190, "trial_type": "single-stim", "stimulus": "<div class = centerbox style = text-align:center><p style = font-size:50px>Same or different? </p></div>", "trial_id": "response_line", "time_elapsed": 297009, "response": ["same"], "internal_node_id": "0.0-194.0", "key_press": 49, "trial_index": 194, "congruency": ["congruent"], "correct": true, "alignment": ["aligned"]}, {"rt": -1, "trial_type": "single-stim", "stimulus": "<div class = imageBox><img class = image src = img/line_images/11_target_01_01.png </img></div>", "trial_id": "target", "time_elapsed": 298212, "internal_node_id": "0.0-195.0", "key_press": -1, "trial_index": 195}, {"rt": -1, "trial_type": "single-stim", "stimulus": "<div class = imageBox><img class = image src = img/Pmask1.jpg </img></div>", "trial_id": "mask", "time_elapsed": 299616, "internal_node_id": "0.0-196.0", "key_press": -1, "trial_index": 196}, {"rt": -1, "trial_type": "single-stim", "stimulus": "<div class = imageBox><img class = image src = img/line_images/11_al_02_01.png </img></div>", "trial_id": "probe", "time_elapsed": 300819, "internal_node_id": "0.0-197.0", "key_press": -1, "trial_index": 197}, {"rt": 65, "trial_type": "single-stim", "stimulus": "<div class = centerbox style = text-align:center><p style = font-size:50px>Same or different? </p></div>", "trial_id": "response_line", "time_elapsed": 301899, "response": ["different"], "internal_node_id": "0.0-198.0", "key_press": 48, "trial_index": 198, "congruency": ["incongruent"], "correct": true, "alignment": ["aligned"]}, {"rt": -1, "trial_type": "single-stim", "stimulus": "<div class = imageBox><img class = image src = img/line_images/20_target_01_01.png </img></div>", "trial_id": "target", "time_elapsed": 303102, "internal_node_id": "0.0-199.0", "key_press": -1, "trial_index": 199}, {"rt": -1, "trial_type": "single-stim", "stimulus": "<div class = imageBox><img class = image src = img/Pmask1.jpg </img></div>", "trial_id": "mask", "time_elapsed": 304506, "internal_node_id": "0.0-200.0", "key_press": -1, "trial_index": 200}, {"rt": -1, "trial_type": "single-stim", "stimulus": "<div class = imageBox><img class = image src = img/line_images/20_al_01_02.png </img></div>", "trial_id": "probe", "time_elapsed": 305709, "internal_node_id": "0.0-201.0", "key_press": -1, "trial_index": 201}, {"rt": 164, "trial_type": "single-stim", "stimulus": "<div class = centerbox style = text-align:center><p style = font-size:50px>Same or different? </p></div>", "trial_id": "response_line", "time_elapsed": 306874, "response": ["same"], "internal_node_id": "0.0-202.0", "key_press": 48, "trial_index": 202, "congruency": ["incongruent"], "correct": false, "alignment": ["aligned"]}, {"rt": -1, "trial_type": "single-stim", "stimulus": "<div class = imageBox><img class = image src = img/line_images/20_target_01_01.png </img></div>", "trial_id": "target", "time_elapsed": 308078, "internal_node_id": "0.0-203.0", "key_press": -1, "trial_index": 203}, {"rt": -1, "trial_type": "single-stim", "stimulus": "<div class = imageBox><img class = image src = img/Pmask1.jpg </img></div>", "trial_id": "mask", "time_elapsed": 309482, "internal_node_id": "0.0-204.0", "key_press": -1, "trial_index": 204}, {"rt": -1, "trial_type": "single-stim", "stimulus": "<div class = imageBox><img class = image src = img/line_images/20_al_02_02.png </img></div>", "trial_id": "probe", "time_elapsed": 310685, "internal_node_id": "0.0-205.0", "key_press": -1, "trial_index": 205}, {"rt": 5, "trial_type": "single-stim", "stimulus": "<div class = centerbox style = text-align:center><p style = font-size:50px>Same or different? </p></div>", "trial_id": "response_line", "time_elapsed": 311695, "response": ["different"], "internal_node_id": "0.0-206.0", "key_press": 48, "trial_index": 206, "congruency": ["congruent"], "correct": true, "alignment": ["aligned"]}, {"rt": -1, "trial_type": "single-stim", "stimulus": "<div class = imageBox><img class = image src = img/line_images/12_target_01_01.png </img></div>", "trial_id": "target", "time_elapsed": 312898, "internal_node_id": "0.0-207.0", "key_press": -1, "trial_index": 207}, {"rt": -1, "trial_type": "single-stim", "stimulus": "<div class = imageBox><img class = image src = img/Pmask1.jpg </img></div>", "trial_id": "mask", "time_elapsed": 314301, "internal_node_id": "0.0-208.0", "key_press": -1, "trial_index": 208}, {"rt": -1, "trial_type": "single-stim", "stimulus": "<div class = imageBox><img class = image src = img/line_images/12_al_02_02.png </img></div>", "trial_id": "probe", "time_elapsed": 315504, "internal_node_id": "0.0-209.0", "key_press": -1, "trial_index": 209}, {"rt": 1769, "trial_type": "single-stim", "stimulus": "<div class = centerbox style = text-align:center><p style = font-size:50px>Same or different? </p></div>", "trial_id": "response_line", "time_elapsed": 318275, "response": ["different"], "internal_node_id": "0.0-210.0", "key_press": 48, "trial_index": 210, "congruency": ["congruent"], "correct": true, "alignment": ["aligned"]}, {"rt": -1, "trial_type": "single-stim", "stimulus": "<div class = imageBox><img class = image src = img/line_images/10_target_01_01.png </img></div>", "trial_id": "target", "time_elapsed": 319479, "internal_node_id": "0.0-211.0", "key_press": -1, "trial_index": 211}, {"rt": -1, "trial_type": "single-stim", "stimulus": "<div class = imageBox><img class = image src = img/Pmask3.jpg </img></div>", "trial_id": "mask", "time_elapsed": 320883, "internal_node_id": "0.0-212.0", "key_press": -1, "trial_index": 212}, {"rt": -1, "trial_type": "single-stim", "stimulus": "<div class = imageBox><img class = image src = img/line_images/10_al_02_02.png </img></div>", "trial_id": "probe", "time_elapsed": 322085, "internal_node_id": "0.0-213.0", "key_press": -1, "trial_index": 213}, {"rt": 1002, "trial_type": "single-stim", "stimulus": "<div class = centerbox style = text-align:center><p style = font-size:50px>Same or different? </p></div>", "trial_id": "response_line", "time_elapsed": 324089, "response": ["different"], "internal_node_id": "0.0-214.0", "key_press": 48, "trial_index": 214, "congruency": ["congruent"], "correct": true, "alignment": ["aligned"]}, {"rt": -1, "trial_type": "single-stim", "stimulus": "<div class = imageBox><img class = image src = img/line_images/4_target_01_01.png </img></div>", "trial_id": "target", "time_elapsed": 325292, "internal_node_id": "0.0-215.0", "key_press": -1, "trial_index": 215}, {"rt": -1, "trial_type": "single-stim", "stimulus": "<div class = imageBox><img class = image src = img/Pmask5.jpg </img></div>", "trial_id": "mask", "time_elapsed": 326695, "internal_node_id": "0.0-216.0", "key_press": -1, "trial_index": 216}, {"rt": -1, "trial_type": "single-stim", "stimulus": "<div class = imageBox><img class = image src = img/line_images/4_al_02_02.png </img></div>", "trial_id": "probe", "time_elapsed": 327900, "internal_node_id": "0.0-217.0", "key_press": -1, "trial_index": 217}, {"rt": 44, "trial_type": "single-stim", "stimulus": "<div class = centerbox style = text-align:center><p style = font-size:50px>Same or different? </p></div>", "trial_id": "response_line", "time_elapsed": 328945, "response": ["different"], "internal_node_id": "0.0-218.0", "key_press": 48, "trial_index": 218, "congruency": ["congruent"], "correct": true, "alignment": ["aligned"]}, {"rt": -1, "trial_type": "single-stim", "stimulus": "<div class = imageBox><img class = image src = img/line_images/4_target_01_01.png </img></div>", "trial_id": "target", "time_elapsed": 330149, "internal_node_id": "0.0-219.0", "key_press": -1, "trial_index": 219}, {"rt": -1, "trial_type": "single-stim", "stimulus": "<div class = imageBox><img class = image src = img/Pmask4.jpg </img></div>", "trial_id": "mask", "time_elapsed": 331551, "internal_node_id": "0.0-220.0", "key_press": -1, "trial_index": 220}, {"rt": -1, "trial_type": "single-stim", "stimulus": "<div class = imageBox><img class = image src = img/line_images/4_mis_02_01.png </img></div>", "trial_id": "probe", "time_elapsed": 332753, "internal_node_id": "0.0-221.0", "key_press": -1, "trial_index": 221}, {"rt": 219, "trial_type": "single-stim", "stimulus": "<div class = centerbox style = text-align:center><p style = font-size:50px>Same or different? </p></div>", "trial_id": "response_line", "time_elapsed": 333974, "response": ["different"], "internal_node_id": "0.0-222.0", "key_press": 48, "trial_index": 222, "congruency": ["incongruent"], "correct": true, "alignment": ["misaligned"]}, {"rt": -1, "trial_type": "single-stim", "stimulus": "<div class = imageBox><img class = image src = img/line_images/17_target_01_01.png </img></div>", "trial_id": "target", "time_elapsed": 335177, "internal_node_id": "0.0-223.0", "key_press": -1, "trial_index": 223}, {"rt": -1, "trial_type": "single-stim", "stimulus": "<div class = imageBox><img class = image src = img/Pmask3.jpg </img></div>", "trial_id": "mask", "time_elapsed": 336581, "internal_node_id": "0.0-224.0", "key_press": -1, "trial_index": 224}, {"rt": -1, "trial_type": "single-stim", "stimulus": "<div class = imageBox><img class = image src = img/line_images/17_mis_01_01.png </img></div>", "trial_id": "probe", "time_elapsed": 337786, "internal_node_id": "0.0-225.0", "key_press": -1, "trial_index": 225}, {"rt": 175, "trial_type": "single-stim", "stimulus": "<div class = centerbox style = text-align:center><p style = font-size:50px>Same or different? </p></div>", "trial_id": "response_line", "time_elapsed": 338963, "response": ["same"], "internal_node_id": "0.0-226.0", "key_press": 48, "trial_index": 226, "congruency": ["congruent"], "correct": false, "alignment": ["misaligned"]}, {"rt": -1, "trial_type": "single-stim", "stimulus": "<div class = imageBox><img class = image src = img/line_images/7_target_01_01.png </img></div>", "trial_id": "target", "time_elapsed": 340167, "internal_node_id": "0.0-227.0", "key_press": -1, "trial_index": 227}, {"rt": -1, "trial_type": "single-stim", "stimulus": "<div class = imageBox><img class = image src = img/Pmask4.jpg </img></div>", "trial_id": "mask", "time_elapsed": 341571, "internal_node_id": "0.0-228.0", "key_press": -1, "trial_index": 228}, {"rt": -1, "trial_type": "single-stim", "stimulus": "<div class = imageBox><img class = image src = img/line_images/7_al_02_02.png </img></div>", "trial_id": "probe", "time_elapsed": 342778, "internal_node_id": "0.0-229.0", "key_press": -1, "trial_index": 229}, {"rt": 53, "trial_type": "single-stim", "stimulus": "<div class = centerbox style = text-align:center><p style = font-size:50px>Same or different? </p></div>", "trial_id": "response_line", "time_elapsed": 343833, "response": ["different"], "internal_node_id": "0.0-230.0", "key_press": 48, "trial_index": 230, "congruency": ["congruent"], "correct": true, "alignment": ["aligned"]}, {"rt": -1, "trial_type": "single-stim", "stimulus": "<div class = imageBox><img class = image src = img/line_images/17_target_01_01.png </img></div>", "trial_id": "target", "time_elapsed": 345036, "internal_node_id": "0.0-231.0", "key_press": -1, "trial_index": 231}, {"rt": -1, "trial_type": "single-stim", "stimulus": "<div class = imageBox><img class = image src = img/Pmask4.jpg </img></div>", "trial_id": "mask", "time_elapsed": 346439, "internal_node_id": "0.0-232.0", "key_press": -1, "trial_index": 232}, {"rt": -1, "trial_type": "single-stim", "stimulus": "<div class = imageBox><img class = image src = img/line_images/17_al_01_02.png </img></div>", "trial_id": "probe", "time_elapsed": 347642, "internal_node_id": "0.0-233.0", "key_press": -1, "trial_index": 233}, {"rt": 910, "trial_type": "single-stim", "stimulus": "<div class = centerbox style = text-align:center><p style = font-size:50px>Same or different? </p></div>", "trial_id": "response_line", "time_elapsed": 349554, "response": ["same"], "internal_node_id": "0.0-234.0", "key_press": 48, "trial_index": 234, "congruency": ["incongruent"], "correct": false, "alignment": ["aligned"]}, {"rt": -1, "trial_type": "single-stim", "stimulus": "<div class = imageBox><img class = image src = img/line_images/9_target_01_01.png </img></div>", "trial_id": "target", "time_elapsed": 350758, "internal_node_id": "0.0-235.0", "key_press": -1, "trial_index": 235}, {"rt": -1, "trial_type": "single-stim", "stimulus": "<div class = imageBox><img class = image src = img/Pmask5.jpg </img></div>", "trial_id": "mask", "time_elapsed": 352162, "internal_node_id": "0.0-236.0", "key_press": -1, "trial_index": 236}, {"rt": -1, "trial_type": "single-stim", "stimulus": "<div class = imageBox><img class = image src = img/line_images/9_mis_01_02.png </img></div>", "trial_id": "probe", "time_elapsed": 353364, "internal_node_id": "0.0-237.0", "key_press": -1, "trial_index": 237}, {"rt": 114, "trial_type": "single-stim", "stimulus": "<div class = centerbox style = text-align:center><p style = font-size:50px>Same or different? </p></div>", "trial_id": "response_line", "time_elapsed": 354480, "response": ["same"], "internal_node_id": "0.0-238.0", "key_press": 48, "trial_index": 238, "congruency": ["incongruent"], "correct": false, "alignment": ["misaligned"]}, {"rt": -1, "trial_type": "single-stim", "stimulus": "<div class = imageBox><img class = image src = img/line_images/2_target_01_01.png </img></div>", "trial_id": "target", "time_elapsed": 355682, "internal_node_id": "0.0-239.0", "key_press": -1, "trial_index": 239}, {"rt": -1, "trial_type": "single-stim", "stimulus": "<div class = imageBox><img class = image src = img/Pmask5.jpg </img></div>", "trial_id": "mask", "time_elapsed": 357085, "internal_node_id": "0.0-240.0", "key_press": -1, "trial_index": 240}, {"rt": -1, "trial_type": "single-stim", "stimulus": "<div class = imageBox><img class = image src = img/line_images/2_mis_01_01.png </img></div>", "trial_id": "probe", "time_elapsed": 358287, "internal_node_id": "0.0-241.0", "key_press": -1, "trial_index": 241}, {"rt": 180, "trial_type": "single-stim", "stimulus": "<div class = centerbox style = text-align:center><p style = font-size:50px>Same or different? </p></div>", "trial_id": "response_line", "time_elapsed": 359470, "response": ["same"], "internal_node_id": "0.0-242.0", "key_press": 48, "trial_index": 242, "congruency": ["congruent"], "correct": false, "alignment": ["misaligned"]}, {"rt": -1, "trial_type": "single-stim", "stimulus": "<div class = imageBox><img class = image src = img/line_images/18_target_01_01.png </img></div>", "trial_id": "target", "time_elapsed": 360673, "internal_node_id": "0.0-243.0", "key_press": -1, "trial_index": 243}, {"rt": -1, "trial_type": "single-stim", "stimulus": "<div class = imageBox><img class = image src = img/Pmask1.jpg </img></div>", "trial_id": "mask", "time_elapsed": 362077, "internal_node_id": "0.0-244.0", "key_press": -1, "trial_index": 244}, {"rt": -1, "trial_type": "single-stim", "stimulus": "<div class = imageBox><img class = image src = img/line_images/18_al_02_02.png </img></div>", "trial_id": "probe", "time_elapsed": 363282, "internal_node_id": "0.0-245.0", "key_press": -1, "trial_index": 245}, {"rt": 53, "trial_type": "single-stim", "stimulus": "<div class = centerbox style = text-align:center><p style = font-size:50px>Same or different? </p></div>", "trial_id": "response_line", "time_elapsed": 364338, "response": ["different"], "internal_node_id": "0.0-246.0", "key_press": 48, "trial_index": 246, "congruency": ["congruent"], "correct": true, "alignment": ["aligned"]}, {"rt": -1, "trial_type": "single-stim", "stimulus": "<div class = imageBox><img class = image src = img/line_images/5_target_01_01.png </img></div>", "trial_id": "target", "time_elapsed": 365542, "internal_node_id": "0.0-247.0", "key_press": -1, "trial_index": 247}, {"rt": -1, "trial_type": "single-stim", "stimulus": "<div class = imageBox><img class = image src = img/Pmask5.jpg </img></div>", "trial_id": "mask", "time_elapsed": 366945, "internal_node_id": "0.0-248.0", "key_press": -1, "trial_index": 248}, {"rt": -1, "trial_type": "single-stim", "stimulus": "<div class = imageBox><img class = image src = img/line_images/5_al_02_01.png </img></div>", "trial_id": "probe", "time_elapsed": 368148, "internal_node_id": "0.0-249.0", "key_press": -1, "trial_index": 249}, {"rt": 141, "trial_type": "single-stim", "stimulus": "<div class = centerbox style = text-align:center><p style = font-size:50px>Same or different? </p></div>", "trial_id": "response_line", "time_elapsed": 369291, "response": ["different"], "internal_node_id": "0.0-250.0", "key_press": 48, "trial_index": 250, "congruency": ["incongruent"], "correct": true, "alignment": ["aligned"]}, {"rt": -1, "trial_type": "single-stim", "stimulus": "<div class = imageBox><img class = image src = img/line_images/6_target_01_01.png </img></div>", "trial_id": "target", "time_elapsed": 370494, "internal_node_id": "0.0-251.0", "key_press": -1, "trial_index": 251}, {"rt": -1, "trial_type": "single-stim", "stimulus": "<div class = imageBox><img class = image src = img/Pmask2.jpg </img></div>", "trial_id": "mask", "time_elapsed": 371899, "internal_node_id": "0.0-252.0", "key_press": -1, "trial_index": 252}, {"rt": -1, "trial_type": "single-stim", "stimulus": "<div class = imageBox><img class = image src = img/line_images/6_mis_02_02.png </img></div>", "trial_id": "probe", "time_elapsed": 373102, "internal_node_id": "0.0-253.0", "key_press": -1, "trial_index": 253}, {"rt": 52, "trial_type": "single-stim", "stimulus": "<div class = centerbox style = text-align:center><p style = font-size:50px>Same or different? </p></div>", "trial_id": "response_line", "time_elapsed": 374156, "response": ["different"], "internal_node_id": "0.0-254.0", "key_press": 48, "trial_index": 254, "congruency": ["congruent"], "correct": true, "alignment": ["misaligned"]}, {"rt": -1, "trial_type": "single-stim", "stimulus": "<div class = imageBox><img class = image src = img/line_images/13_target_01_01.png </img></div>", "trial_id": "target", "time_elapsed": 375498, "internal_node_id": "0.0-255.0", "key_press": -1, "trial_index": 255}, {"rt": -1, "trial_type": "single-stim", "stimulus": "<div class = imageBox><img class = image src = img/Pmask2.jpg </img></div>", "trial_id": "mask", "time_elapsed": 376901, "internal_node_id": "0.0-256.0", "key_press": -1, "trial_index": 256}, {"rt": -1, "trial_type": "single-stim", "stimulus": "<div class = imageBox><img class = image src = img/line_images/13_mis_01_01.png </img></div>", "trial_id": "probe", "time_elapsed": 378103, "internal_node_id": "0.0-257.0", "key_press": -1, "trial_index": 257}, {"rt": 489, "trial_type": "single-stim", "stimulus": "<div class = centerbox style = text-align:center><p style = font-size:50px>Same or different? </p></div>", "trial_id": "response_line", "time_elapsed": 379595, "response": ["same"], "internal_node_id": "0.0-258.0", "key_press": 49, "trial_index": 258, "congruency": ["congruent"], "correct": true, "alignment": ["misaligned"]}, {"rt": -1, "trial_type": "single-stim", "stimulus": "<div class = imageBox><img class = image src = img/line_images/9_target_01_01.png </img></div>", "trial_id": "target", "time_elapsed": 380798, "internal_node_id": "0.0-259.0", "key_press": -1, "trial_index": 259}, {"rt": -1, "trial_type": "single-stim", "stimulus": "<div class = imageBox><img class = image src = img/Pmask2.jpg </img></div>", "trial_id": "mask", "time_elapsed": 382201, "internal_node_id": "0.0-260.0", "key_press": -1, "trial_index": 260}, {"rt": -1, "trial_type": "single-stim", "stimulus": "<div class = imageBox><img class = image src = img/line_images/9_al_02_01.png </img></div>", "trial_id": "probe", "time_elapsed": 383404, "internal_node_id": "0.0-261.0", "key_press": -1, "trial_index": 261}, {"rt": 352, "trial_type": "single-stim", "stimulus": "<div class = centerbox style = text-align:center><p style = font-size:50px>Same or different? </p></div>", "trial_id": "response_line", "time_elapsed": 384759, "response": ["different"], "internal_node_id": "0.0-262.0", "key_press": 49, "trial_index": 262, "congruency": ["incongruent"], "correct": false, "alignment": ["aligned"]}, {"rt": -1, "trial_type": "single-stim", "stimulus": "<div class = imageBox><img class = image src = img/line_images/18_target_01_01.png </img></div>", "trial_id": "target", "time_elapsed": 385963, "internal_node_id": "0.0-263.0", "key_press": -1, "trial_index": 263}, {"rt": -1, "trial_type": "single-stim", "stimulus": "<div class = imageBox><img class = image src = img/Pmask5.jpg </img></div>", "trial_id": "mask", "time_elapsed": 387364, "internal_node_id": "0.0-264.0", "key_press": -1, "trial_index": 264}, {"rt": -1, "trial_type": "single-stim", "stimulus": "<div class = imageBox><img class = image src = img/line_images/18_mis_02_02.png </img></div>", "trial_id": "probe", "time_elapsed": 388567, "internal_node_id": "0.0-265.0", "key_press": -1, "trial_index": 265}, {"rt": 1121, "trial_type": "single-stim", "stimulus": "<div class = centerbox style = text-align:center><p style = font-size:50px>Same or different? </p></div>", "trial_id": "response_line", "time_elapsed": 390690, "response": ["different"], "internal_node_id": "0.0-266.0", "key_press": 48, "trial_index": 266, "congruency": ["congruent"], "correct": true, "alignment": ["misaligned"]}, {"rt": -1, "trial_type": "single-stim", "stimulus": "<div class = imageBox><img class = image src = img/line_images/5_target_01_01.png </img></div>", "trial_id": "target", "time_elapsed": 391893, "internal_node_id": "0.0-267.0", "key_press": -1, "trial_index": 267}, {"rt": -1, "trial_type": "single-stim", "stimulus": "<div class = imageBox><img class = image src = img/Pmask4.jpg </img></div>", "trial_id": "mask", "time_elapsed": 393296, "internal_node_id": "0.0-268.0", "key_press": -1, "trial_index": 268}, {"rt": -1, "trial_type": "single-stim", "stimulus": "<div class = imageBox><img class = image src = img/line_images/5_mis_02_02.png </img></div>", "trial_id": "probe", "time_elapsed": 394501, "internal_node_id": "0.0-269.0", "key_press": -1, "trial_index": 269}, {"rt": 792, "trial_type": "single-stim", "stimulus": "<div class = centerbox style = text-align:center><p style = font-size:50px>Same or different? </p></div>", "trial_id": "response_line", "time_elapsed": 396297, "response": ["different"], "internal_node_id": "0.0-270.0", "key_press": 48, "trial_index": 270, "congruency": ["congruent"], "correct": true, "alignment": ["misaligned"]}, {"rt": -1, "trial_type": "single-stim", "stimulus": "<div class = imageBox><img class = image src = img/line_images/8_target_01_01.png </img></div>", "trial_id": "target", "time_elapsed": 397504, "internal_node_id": "0.0-271.0", "key_press": -1, "trial_index": 271}, {"rt": -1, "trial_type": "single-stim", "stimulus": "<div class = imageBox><img class = image src = img/Pmask5.jpg </img></div>", "trial_id": "mask", "time_elapsed": 398908, "internal_node_id": "0.0-272.0", "key_press": -1, "trial_index": 272}, {"rt": -1, "trial_type": "single-stim", "stimulus": "<div class = imageBox><img class = image src = img/line_images/8_al_01_02.png </img></div>", "trial_id": "probe", "time_elapsed": 400111, "internal_node_id": "0.0-273.0", "key_press": -1, "trial_index": 273}, {"rt": 281, "trial_type": "single-stim", "stimulus": "<div class = centerbox style = text-align:center><p style = font-size:50px>Same or different? </p></div>", "trial_id": "response_line", "time_elapsed": 401394, "response": ["same"], "internal_node_id": "0.0-274.0", "key_press": 48, "trial_index": 274, "congruency": ["incongruent"], "correct": false, "alignment": ["aligned"]}, {"rt": -1, "trial_type": "single-stim", "stimulus": "<div class = imageBox><img class = image src = img/line_images/1_target_01_01.png </img></div>", "trial_id": "target", "time_elapsed": 402596, "internal_node_id": "0.0-275.0", "key_press": -1, "trial_index": 275}, {"rt": -1, "trial_type": "single-stim", "stimulus": "<div class = imageBox><img class = image src = img/Pmask3.jpg </img></div>", "trial_id": "mask", "time_elapsed": 404000, "internal_node_id": "0.0-276.0", "key_press": -1, "trial_index": 276}, {"rt": -1, "trial_type": "single-stim", "stimulus": "<div class = imageBox><img class = image src = img/line_images/1_mis_02_01.png </img></div>", "trial_id": "probe", "time_elapsed": 405204, "internal_node_id": "0.0-277.0", "key_press": -1, "trial_index": 277}, {"rt": 1043, "trial_type": "single-stim", "stimulus": "<div class = centerbox style = text-align:center><p style = font-size:50px>Same or different? </p></div>", "trial_id": "response_line", "time_elapsed": 407250, "response": ["different"], "internal_node_id": "0.0-278.0", "key_press": 48, "trial_index": 278, "congruency": ["incongruent"], "correct": true, "alignment": ["misaligned"]}, {"rt": -1, "trial_type": "single-stim", "stimulus": "<div class = imageBox><img class = image src = img/line_images/10_target_01_01.png </img></div>", "trial_id": "target", "time_elapsed": 408455, "internal_node_id": "0.0-279.0", "key_press": -1, "trial_index": 279}, {"rt": -1, "trial_type": "single-stim", "stimulus": "<div class = imageBox><img class = image src = img/Pmask1.jpg </img></div>", "trial_id": "mask", "time_elapsed": 409858, "internal_node_id": "0.0-280.0", "key_press": -1, "trial_index": 280}, {"rt": -1, "trial_type": "single-stim", "stimulus": "<div class = imageBox><img class = image src = img/line_images/10_mis_02_02.png </img></div>", "trial_id": "probe", "time_elapsed": 411060, "internal_node_id": "0.0-281.0", "key_press": -1, "trial_index": 281}, {"rt": 532, "trial_type": "single-stim", "stimulus": "<div class = centerbox style = text-align:center><p style = font-size:50px>Same or different? </p></div>", "trial_id": "response_line", "time_elapsed": 412595, "response": ["different"], "internal_node_id": "0.0-282.0", "key_press": 48, "trial_index": 282, "congruency": ["congruent"], "correct": true, "alignment": ["misaligned"]}, {"rt": -1, "trial_type": "single-stim", "stimulus": "<div class = imageBox><img class = image src = img/line_images/14_target_01_01.png </img></div>", "trial_id": "target", "time_elapsed": 413799, "internal_node_id": "0.0-283.0", "key_press": -1, "trial_index": 283}, {"rt": -1, "trial_type": "single-stim", "stimulus": "<div class = imageBox><img class = image src = img/Pmask4.jpg </img></div>", "trial_id": "mask", "time_elapsed": 415204, "internal_node_id": "0.0-284.0", "key_press": -1, "trial_index": 284}, {"rt": -1, "trial_type": "single-stim", "stimulus": "<div class = imageBox><img class = image src = img/line_images/14_mis_02_01.png </img></div>", "trial_id": "probe", "time_elapsed": 416409, "internal_node_id": "0.0-285.0", "key_press": -1, "trial_index": 285}, {"rt": 259, "trial_type": "single-stim", "stimulus": "<div class = centerbox style = text-align:center><p style = font-size:50px>Same or different? </p></div>", "trial_id": "response_line", "time_elapsed": 417670, "response": ["different"], "internal_node_id": "0.0-286.0", "key_press": 48, "trial_index": 286, "congruency": ["incongruent"], "correct": true, "alignment": ["misaligned"]}, {"rt": -1, "trial_type": "single-stim", "stimulus": "<div class = imageBox><img class = image src = img/line_images/15_target_01_01.png </img></div>", "trial_id": "target", "time_elapsed": 418875, "internal_node_id": "0.0-287.0", "key_press": -1, "trial_index": 287}, {"rt": -1, "trial_type": "single-stim", "stimulus": "<div class = imageBox><img class = image src = img/Pmask4.jpg </img></div>", "trial_id": "mask", "time_elapsed": 420279, "internal_node_id": "0.0-288.0", "key_press": -1, "trial_index": 288}, {"rt": -1, "trial_type": "single-stim", "stimulus": "<div class = imageBox><img class = image src = img/line_images/15_mis_02_02.png </img></div>", "trial_id": "probe", "time_elapsed": 421482, "internal_node_id": "0.0-289.0", "key_press": -1, "trial_index": 289}, {"rt": 354, "trial_type": "single-stim", "stimulus": "<div class = centerbox style = text-align:center><p style = font-size:50px>Same or different? </p></div>", "trial_id": "response_line", "time_elapsed": 422882, "response": ["different"], "internal_node_id": "0.0-290.0", "key_press": 48, "trial_index": 290, "congruency": ["congruent"], "correct": true, "alignment": ["misaligned"]}, {"rt": -1, "trial_type": "single-stim", "stimulus": "<div class = imageBox><img class = image src = img/line_images/9_target_01_01.png </img></div>", "trial_id": "target", "time_elapsed": 424085, "internal_node_id": "0.0-291.0", "key_press": -1, "trial_index": 291}, {"rt": -1, "trial_type": "single-stim", "stimulus": "<div class = imageBox><img class = image src = img/Pmask1.jpg </img></div>", "trial_id": "mask", "time_elapsed": 425490, "internal_node_id": "0.0-292.0", "key_press": -1, "trial_index": 292}, {"rt": -1, "trial_type": "single-stim", "stimulus": "<div class = imageBox><img class = image src = img/line_images/9_al_01_02.png </img></div>", "trial_id": "probe", "time_elapsed": 426692, "internal_node_id": "0.0-293.0", "key_press": -1, "trial_index": 293}, {"rt": 366, "trial_type": "single-stim", "stimulus": "<div class = centerbox style = text-align:center><p style = font-size:50px>Same or different? </p></div>", "trial_id": "response_line", "time_elapsed": 428061, "response": ["same"], "internal_node_id": "0.0-294.0", "key_press": 48, "trial_index": 294, "congruency": ["incongruent"], "correct": false, "alignment": ["aligned"]}, {"rt": -1, "trial_type": "single-stim", "stimulus": "<div class = imageBox><img class = image src = img/line_images/18_target_01_01.png </img></div>", "trial_id": "target", "time_elapsed": 429266, "internal_node_id": "0.0-295.0", "key_press": -1, "trial_index": 295}, {"rt": -1, "trial_type": "single-stim", "stimulus": "<div class = imageBox><img class = image src = img/Pmask4.jpg </img></div>", "trial_id": "mask", "time_elapsed": 430670, "internal_node_id": "0.0-296.0", "key_press": -1, "trial_index": 296}, {"rt": -1, "trial_type": "single-stim", "stimulus": "<div class = imageBox><img class = image src = img/line_images/18_mis_01_02.png </img></div>", "trial_id": "probe", "time_elapsed": 431872, "internal_node_id": "0.0-297.0", "key_press": -1, "trial_index": 297}, {"rt": 453, "trial_type": "single-stim", "stimulus": "<div class = centerbox style = text-align:center><p style = font-size:50px>Same or different? </p></div>", "trial_id": "response_line", "time_elapsed": 433329, "response": ["same"], "internal_node_id": "0.0-298.0", "key_press": 48, "trial_index": 298, "congruency": ["incongruent"], "correct": false, "alignment": ["misaligned"]}, {"rt": -1, "trial_type": "single-stim", "stimulus": "<div class = imageBox><img class = image src = img/line_images/5_target_01_01.png </img></div>", "trial_id": "target", "time_elapsed": 434533, "internal_node_id": "0.0-299.0", "key_press": -1, "trial_index": 299}, {"rt": -1, "trial_type": "single-stim", "stimulus": "<div class = imageBox><img class = image src = img/Pmask5.jpg </img></div>", "trial_id": "mask", "time_elapsed": 435938, "internal_node_id": "0.0-300.0", "key_press": -1, "trial_index": 300}, {"rt": -1, "trial_type": "single-stim", "stimulus": "<div class = imageBox><img class = image src = img/line_images/5_mis_01_01.png </img></div>", "trial_id": "probe", "time_elapsed": 437139, "internal_node_id": "0.0-301.0", "key_press": -1, "trial_index": 301}, {"rt": 222, "trial_type": "single-stim", "stimulus": "<div class = centerbox style = text-align:center><p style = font-size:50px>Same or different? </p></div>", "trial_id": "response_line", "time_elapsed": 438364, "response": ["same"], "internal_node_id": "0.0-302.0", "key_press": 49, "trial_index": 302, "congruency": ["congruent"], "correct": true, "alignment": ["misaligned"]}, {"rt": -1, "trial_type": "single-stim", "stimulus": "<div class = imageBox><img class = image src = img/line_images/7_target_01_01.png </img></div>", "trial_id": "target", "time_elapsed": 439567, "internal_node_id": "0.0-303.0", "key_press": -1, "trial_index": 303}, {"rt": -1, "trial_type": "single-stim", "stimulus": "<div class = imageBox><img class = image src = img/Pmask3.jpg </img></div>", "trial_id": "mask", "time_elapsed": 440970, "internal_node_id": "0.0-304.0", "key_press": -1, "trial_index": 304}, {"rt": -1, "trial_type": "single-stim", "stimulus": "<div class = imageBox><img class = image src = img/line_images/7_mis_02_01.png </img></div>", "trial_id": "probe", "time_elapsed": 442173, "internal_node_id": "0.0-305.0", "key_press": -1, "trial_index": 305}, {"rt": 1010, "trial_type": "single-stim", "stimulus": "<div class = centerbox style = text-align:center><p style = font-size:50px>Same or different? </p></div>", "trial_id": "response_line", "time_elapsed": 444185, "response": ["different"], "internal_node_id": "0.0-306.0", "key_press": 48, "trial_index": 306, "congruency": ["incongruent"], "correct": true, "alignment": ["misaligned"]}, {"rt": -1, "trial_type": "single-stim", "stimulus": "<div class = imageBox><img class = image src = img/line_images/14_target_01_01.png </img></div>", "trial_id": "target", "time_elapsed": 445389, "internal_node_id": "0.0-307.0", "key_press": -1, "trial_index": 307}, {"rt": -1, "trial_type": "single-stim", "stimulus": "<div class = imageBox><img class = image src = img/Pmask4.jpg </img></div>", "trial_id": "mask", "time_elapsed": 446792, "internal_node_id": "0.0-308.0", "key_press": -1, "trial_index": 308}, {"rt": -1, "trial_type": "single-stim", "stimulus": "<div class = imageBox><img class = image src = img/line_images/14_mis_02_02.png </img></div>", "trial_id": "probe", "time_elapsed": 447995, "internal_node_id": "0.0-309.0", "key_press": -1, "trial_index": 309}, {"rt": 303, "trial_type": "single-stim", "stimulus": "<div class = centerbox style = text-align:center><p style = font-size:50px>Same or different? </p></div>", "trial_id": "response_line", "time_elapsed": 449300, "response": ["different"], "internal_node_id": "0.0-310.0", "key_press": 49, "trial_index": 310, "congruency": ["congruent"], "correct": false, "alignment": ["misaligned"]}, {"rt": -1, "trial_type": "single-stim", "stimulus": "<div class = imageBox><img class = image src = img/line_images/15_target_01_01.png </img></div>", "trial_id": "target", "time_elapsed": 450508, "internal_node_id": "0.0-311.0", "key_press": -1, "trial_index": 311}, {"rt": -1, "trial_type": "single-stim", "stimulus": "<div class = imageBox><img class = image src = img/Pmask2.jpg </img></div>", "trial_id": "mask", "time_elapsed": 451911, "internal_node_id": "0.0-312.0", "key_press": -1, "trial_index": 312}, {"rt": -1, "trial_type": "single-stim", "stimulus": "<div class = imageBox><img class = image src = img/line_images/15_mis_02_01.png </img></div>", "trial_id": "probe", "time_elapsed": 453117, "internal_node_id": "0.0-313.0", "key_press": -1, "trial_index": 313}, {"rt": 353, "trial_type": "single-stim", "stimulus": "<div class = centerbox style = text-align:center><p style = font-size:50px>Same or different? </p></div>", "trial_id": "response_line", "time_elapsed": 454473, "response": ["different"], "internal_node_id": "0.0-314.0", "key_press": 48, "trial_index": 314, "congruency": ["incongruent"], "correct": true, "alignment": ["misaligned"]}, {"rt": -1, "trial_type": "single-stim", "stimulus": "<div class = imageBox><img class = image src = img/line_images/4_target_01_01.png </img></div>", "trial_id": "target", "time_elapsed": 455676, "internal_node_id": "0.0-315.0", "key_press": -1, "trial_index": 315}, {"rt": -1, "trial_type": "single-stim", "stimulus": "<div class = imageBox><img class = image src = img/Pmask3.jpg </img></div>", "trial_id": "mask", "time_elapsed": 457080, "internal_node_id": "0.0-316.0", "key_press": -1, "trial_index": 316}, {"rt": -1, "trial_type": "single-stim", "stimulus": "<div class = imageBox><img class = image src = img/line_images/4_mis_02_02.png </img></div>", "trial_id": "probe", "time_elapsed": 458283, "internal_node_id": "0.0-317.0", "key_press": -1, "trial_index": 317}, {"rt": 368, "trial_type": "single-stim", "stimulus": "<div class = centerbox style = text-align:center><p style = font-size:50px>Same or different? </p></div>", "trial_id": "response_line", "time_elapsed": 459660, "response": ["different"], "internal_node_id": "0.0-318.0", "key_press": 48, "trial_index": 318, "congruency": ["congruent"], "correct": true, "alignment": ["misaligned"]}, {"rt": -1, "trial_type": "single-stim", "stimulus": "<div class = imageBox><img class = image src = img/line_images/13_target_01_01.png </img></div>", "trial_id": "target", "time_elapsed": 460863, "internal_node_id": "0.0-319.0", "key_press": -1, "trial_index": 319}, {"rt": -1, "trial_type": "single-stim", "stimulus": "<div class = imageBox><img class = image src = img/Pmask2.jpg </img></div>", "trial_id": "mask", "time_elapsed": 462266, "internal_node_id": "0.0-320.0", "key_press": -1, "trial_index": 320}, {"rt": -1, "trial_type": "single-stim", "stimulus": "<div class = imageBox><img class = image src = img/line_images/13_al_02_02.png </img></div>", "trial_id": "probe", "time_elapsed": 463469, "internal_node_id": "0.0-321.0", "key_press": -1, "trial_index": 321}, {"rt": 352, "trial_type": "single-stim", "stimulus": "<div class = centerbox style = text-align:center><p style = font-size:50px>Same or different? </p></div>", "trial_id": "response_line", "time_elapsed": 464825, "response": ["different"], "internal_node_id": "0.0-322.0", "key_press": 48, "trial_index": 322, "congruency": ["congruent"], "correct": true, "alignment": ["aligned"]}, {"rt": -1, "trial_type": "single-stim", "stimulus": "<div class = imageBox><img class = image src = img/line_images/8_target_01_01.png </img></div>", "trial_id": "target", "time_elapsed": 466028, "internal_node_id": "0.0-323.0", "key_press": -1, "trial_index": 323}, {"rt": -1, "trial_type": "single-stim", "stimulus": "<div class = imageBox><img class = image src = img/Pmask4.jpg </img></div>", "trial_id": "mask", "time_elapsed": 467432, "internal_node_id": "0.0-324.0", "key_press": -1, "trial_index": 324}, {"rt": -1, "trial_type": "single-stim", "stimulus": "<div class = imageBox><img class = image src = img/line_images/8_mis_01_01.png </img></div>", "trial_id": "probe", "time_elapsed": 468635, "internal_node_id": "0.0-325.0", "key_press": -1, "trial_index": 325}, {"rt": 238, "trial_type": "single-stim", "stimulus": "<div class = centerbox style = text-align:center><p style = font-size:50px>Same or different? </p></div>", "trial_id": "response_line", "time_elapsed": 469876, "response": ["same"], "internal_node_id": "0.0-326.0", "key_press": 48, "trial_index": 326, "congruency": ["congruent"], "correct": false, "alignment": ["misaligned"]}, {"rt": -1, "trial_type": "single-stim", "stimulus": "<div class = imageBox><img class = image src = img/line_images/19_target_01_01.png </img></div>", "trial_id": "target", "time_elapsed": 471079, "internal_node_id": "0.0-327.0", "key_press": -1, "trial_index": 327}, {"rt": -1, "trial_type": "single-stim", "stimulus": "<div class = imageBox><img class = image src = img/Pmask1.jpg </img></div>", "trial_id": "mask", "time_elapsed": 472482, "internal_node_id": "0.0-328.0", "key_press": -1, "trial_index": 328}, {"rt": -1, "trial_type": "single-stim", "stimulus": "<div class = imageBox><img class = image src = img/line_images/19_al_02_02.png </img></div>", "trial_id": "probe", "time_elapsed": 473686, "internal_node_id": "0.0-329.0", "key_press": -1, "trial_index": 329}, {"rt": 215, "trial_type": "single-stim", "stimulus": "<div class = centerbox style = text-align:center><p style = font-size:50px>Same or different? </p></div>", "trial_id": "response_line", "time_elapsed": 474904, "response": ["different"], "internal_node_id": "0.0-330.0", "key_press": 49, "trial_index": 330, "congruency": ["congruent"], "correct": false, "alignment": ["aligned"]}, {"rt": -1, "trial_type": "single-stim", "stimulus": "<div class = imageBox><img class = image src = img/line_images/13_target_01_01.png </img></div>", "trial_id": "target", "time_elapsed": 476106, "internal_node_id": "0.0-331.0", "key_press": -1, "trial_index": 331}, {"rt": -1, "trial_type": "single-stim", "stimulus": "<div class = imageBox><img class = image src = img/Pmask4.jpg </img></div>", "trial_id": "mask", "time_elapsed": 477510, "internal_node_id": "0.0-332.0", "key_press": -1, "trial_index": 332}, {"rt": -1, "trial_type": "single-stim", "stimulus": "<div class = imageBox><img class = image src = img/line_images/13_mis_02_02.png </img></div>", "trial_id": "probe", "time_elapsed": 478716, "internal_node_id": "0.0-333.0", "key_press": -1, "trial_index": 333}, {"rt": 935, "trial_type": "single-stim", "stimulus": "<div class = centerbox style = text-align:center><p style = font-size:50px>Same or different? </p></div>", "trial_id": "response_line", "time_elapsed": 480653, "response": ["different"], "internal_node_id": "0.0-334.0", "key_press": 48, "trial_index": 334, "congruency": ["congruent"], "correct": true, "alignment": ["misaligned"]}, {"rt": -1, "trial_type": "single-stim", "stimulus": "<div class = imageBox><img class = image src = img/line_images/4_target_01_01.png </img></div>", "trial_id": "target", "time_elapsed": 481856, "internal_node_id": "0.0-335.0", "key_press": -1, "trial_index": 335}, {"rt": -1, "trial_type": "single-stim", "stimulus": "<div class = imageBox><img class = image src = img/Pmask4.jpg </img></div>", "trial_id": "mask", "time_elapsed": 483260, "internal_node_id": "0.0-336.0", "key_press": -1, "trial_index": 336}, {"rt": -1, "trial_type": "single-stim", "stimulus": "<div class = imageBox><img class = image src = img/line_images/4_al_01_02.png </img></div>", "trial_id": "probe", "time_elapsed": 484462, "internal_node_id": "0.0-337.0", "key_press": -1, "trial_index": 337}, {"rt": 318, "trial_type": "single-stim", "stimulus": "<div class = centerbox style = text-align:center><p style = font-size:50px>Same or different? </p></div>", "trial_id": "response_line", "time_elapsed": 485784, "response": ["same"], "internal_node_id": "0.0-338.0", "key_press": 48, "trial_index": 338, "congruency": ["incongruent"], "correct": false, "alignment": ["aligned"]}, {"rt": -1, "trial_type": "single-stim", "stimulus": "<div class = imageBox><img class = image src = img/line_images/2_target_01_01.png </img></div>", "trial_id": "target", "time_elapsed": 486987, "internal_node_id": "0.0-339.0", "key_press": -1, "trial_index": 339}, {"rt": -1, "trial_type": "single-stim", "stimulus": "<div class = imageBox><img class = image src = img/Pmask3.jpg </img></div>", "trial_id": "mask", "time_elapsed": 488393, "internal_node_id": "0.0-340.0", "key_press": -1, "trial_index": 340}, {"rt": -1, "trial_type": "single-stim", "stimulus": "<div class = imageBox><img class = image src = img/line_images/2_al_01_01.png </img></div>", "trial_id": "probe", "time_elapsed": 489596, "internal_node_id": "0.0-341.0", "key_press": -1, "trial_index": 341}, {"rt": 106, "trial_type": "single-stim", "stimulus": "<div class = centerbox style = text-align:center><p style = font-size:50px>Same or different? </p></div>", "trial_id": "response_line", "time_elapsed": 490704, "response": ["same"], "internal_node_id": "0.0-342.0", "key_press": 49, "trial_index": 342, "congruency": ["congruent"], "correct": true, "alignment": ["aligned"]}, {"rt": -1, "trial_type": "single-stim", "stimulus": "<div class = imageBox><img class = image src = img/line_images/18_target_01_01.png </img></div>", "trial_id": "target", "time_elapsed": 491907, "internal_node_id": "0.0-343.0", "key_press": -1, "trial_index": 343}, {"rt": -1, "trial_type": "single-stim", "stimulus": "<div class = imageBox><img class = image src = img/Pmask2.jpg </img></div>", "trial_id": "mask", "time_elapsed": 493310, "internal_node_id": "0.0-344.0", "key_press": -1, "trial_index": 344}, {"rt": -1, "trial_type": "single-stim", "stimulus": "<div class = imageBox><img class = image src = img/line_images/18_al_01_02.png </img></div>", "trial_id": "probe", "time_elapsed": 494512, "internal_node_id": "0.0-345.0", "key_press": -1, "trial_index": 345}, {"rt": 243, "trial_type": "single-stim", "stimulus": "<div class = centerbox style = text-align:center><p style = font-size:50px>Same or different? </p></div>", "trial_id": "response_line", "time_elapsed": 495761, "response": ["same"], "internal_node_id": "0.0-346.0", "key_press": 49, "trial_index": 346, "congruency": ["incongruent"], "correct": true, "alignment": ["aligned"]}, {"rt": -1, "trial_type": "single-stim", "stimulus": "<div class = imageBox><img class = image src = img/line_images/6_target_01_01.png </img></div>", "trial_id": "target", "time_elapsed": 496964, "internal_node_id": "0.0-347.0", "key_press": -1, "trial_index": 347}, {"rt": -1, "trial_type": "single-stim", "stimulus": "<div class = imageBox><img class = image src = img/Pmask2.jpg </img></div>", "trial_id": "mask", "time_elapsed": 498367, "internal_node_id": "0.0-348.0", "key_press": -1, "trial_index": 348}, {"rt": -1, "trial_type": "single-stim", "stimulus": "<div class = imageBox><img class = image src = img/line_images/6_mis_01_02.png </img></div>", "trial_id": "probe", "time_elapsed": 499569, "internal_node_id": "0.0-349.0", "key_press": -1, "trial_index": 349}, {"rt": 183, "trial_type": "single-stim", "stimulus": "<div class = centerbox style = text-align:center><p style = font-size:50px>Same or different? </p></div>", "trial_id": "response_line", "time_ela