{"AutoApprovalTime": "2017-11-29T20:21:42Z", "AssignmentId": "340UGXU9DY160RC7KRMORLK99CHVU9", "WorkerId": "anon0", "answers": {"data": [{"rt": -1, "trial_type": "text", "time_elapsed": 3010, "internal_node_id": "0.0-0.0", "key_press": 13, "trial_index": 0}, {"rt": -1, "trial_type": "text", "time_elapsed": 32577, "internal_node_id": "0.0-1.0", "key_press": 13, "trial_index": 1}, {"rt": -1, "trial_type": "single-stim", "stimulus": "<div class = imageBox><img class = image src = img/line_images/23_target_01_01.png </img></div>", "time_elapsed": 34783, "internal_node_id": "0.0-2.0", "key_press": -1, "trial_index": 2}, {"rt": -1, "trial_type": "single-stim", "stimulus": "<div class = imageBox><img class = image src = img/Pmask1.jpg </img></div>", "trial_id": "mask", "time_elapsed": 36182, "internal_node_id": "0.0-3.0", "key_press": -1, "trial_index": 3}, {"rt": -1, "trial_type": "single-stim", "stimulus": "<div class = imageBox><img class = image src = img/line_images/23_al_01_01.png </img></div>", "time_elapsed": 37384, "internal_node_id": "0.0-4.0", "key_press": -1, "trial_index": 4}, {"rt": -1, "trial_type": "single-stim", "stimulus": "<div class = centerbox style = text-align:center><p style = font-size:50px>Same or different? </p></div>", "internal_node_id": "0.0-5.0", "response": ["same"], "time_elapsed": 39388, "key_press": 49, "correct": true, "trial_index": 5}, {"rt": -1, "trial_type": "single-stim", "stimulus": "<div class = centerbox style = text-align:center><p style = font-size:40px><span class = 'large' style = 'color:green'>Correct!</span> </p></div>", "time_elapsed": 40893, "internal_node_id": "0.0-6.0", "key_press": -1, "trial_index": 6}, {"rt": -1, "trial_type": "single-stim", "stimulus": "<div class = imageBox><img class = image src = img/line_images/23_target_01_01.png </img></div>", "time_elapsed": 42095, "internal_node_id": "0.0-7.0", "key_press": -1, "trial_index": 7}, {"rt": -1, "trial_type": "single-stim", "stimulus": "<div class = imageBox><img class = image src = img/Pmask4.jpg </img></div>", "trial_id": "mask", "time_elapsed": 43498, "internal_node_id": "0.0-8.0", "key_press": -1, "trial_index": 8}, {"rt": -1, "trial_type": "single-stim", "stimulus": "<div class = imageBox><img class = image src = img/line_images/23_mis_02_01.png </img></div>", "time_elapsed": 44700, "internal_node_id": "0.0-9.0", "key_press": -1, "trial_index": 9}, {"rt": -1, "trial_type": "single-stim", "stimulus": "<div class = centerbox style = text-align:center><p style = font-size:50px>Same or different? </p></div>", "internal_node_id": "0.0-10.0", "response": ["different"], "time_elapsed": 46063, "key_press": 48, "correct": true, "trial_index": 10}, {"rt": -1, "trial_type": "single-stim", "stimulus": "<div class = centerbox style = text-align:center><p style = font-size:40px><span class = 'large' style = 'color:green'>Correct!</span> </p></div>", "time_elapsed": 47565, "internal_node_id": "0.0-11.0", "key_press": -1, "trial_index": 11}, {"rt": -1, "trial_type": "single-stim", "stimulus": "<div class = imageBox><img class = image src = img/line_images/24_target_01_01.png </img></div>", "time_elapsed": 48767, "internal_node_id": "0.0-12.0", "key_press": -1, "trial_index": 12}, {"rt": -1, "trial_type": "single-stim", "stimulus": "<div class = imageBox><img class = image src = img/Pmask1.jpg </img></div>", "trial_id": "mask", "time_elapsed": 50169, "internal_node_id": "0.0-13.0", "key_press": -1, "trial_index": 13}, {"rt": -1, "trial_type": "single-stim", "stimulus": "<div class = imageBox><img class = image src = img/line_images/24_al_01_01.png </img></div>", "time_elapsed": 51371, "internal_node_id": "0.0-14.0", "key_press": -1, "trial_index": 14}, {"rt": -1, "trial_type": "single-stim", "stimulus": "<div class = centerbox style = text-align:center><p style = font-size:50px>Same or different? </p></div>", "internal_node_id": "0.0-15.0", "response": ["same"], "time_elapsed": 52645, "key_press": 49, "correct": true, "trial_index": 15}, {"rt": -1, "trial_type": "single-stim", "stimulus": "<div class = centerbox style = text-align:center><p style = font-size:40px><span class = 'large' style = 'color:green'>Correct!</span> </p></div>", "time_elapsed": 54147, "internal_node_id": "0.0-16.0", "key_press": -1, "trial_index": 16}, {"rt": -1, "trial_type": "single-stim", "stimulus": "<div class = imageBox><img class = image src = img/line_images/21_target_01_01.png </img></div>", "time_elapsed": 55349, "internal_node_id": "0.0-17.0", "key_press": -1, "trial_index": 17}, {"rt": -1, "trial_type": "single-stim", "stimulus": "<div class = imageBox><img class = image src = img/Pmask1.jpg </img></div>", "trial_id": "mask", "time_elapsed": 56751, "internal_node_id": "0.0-18.0", "key_press": -1, "trial_index": 18}, {"rt": -1, "trial_type": "single-stim", "stimulus": "<div class = imageBox><img class = image src = img/line_images/21_mis_01_01.png </img></div>", "time_elapsed": 57953, "internal_node_id": "0.0-19.0", "key_press": -1, "trial_index": 19}, {"rt": -1, "trial_type": "single-stim", "stimulus": "<div class = centerbox style = text-align:center><p style = font-size:50px>Same or different? </p></div>", "internal_node_id": "0.0-20.0", "response": ["same"], "time_elapsed": 59222, "key_press": 48, "correct": false, "trial_index": 20}, {"rt": -1, "trial_type": "single-stim", "stimulus": "<div class = centerbox style = text-align:center><p style = font-size:40px><span class = 'large' style = 'color:red'>Incorrect</span> </p></div>", "time_elapsed": 60724, "internal_node_id": "0.0-21.0", "key_press": -1, "trial_index": 21}, {"rt": -1, "trial_type": "single-stim", "stimulus": "<div class = imageBox><img class = image src = img/line_images/23_target_01_01.png </img></div>", "time_elapsed": 61926, "internal_node_id": "0.0-22.0", "key_press": -1, "trial_index": 22}, {"rt": -1, "trial_type": "single-stim", "stimulus": "<div class = imageBox><img class = image src = img/Pmask2.jpg </img></div>", "trial_id": "mask", "time_elapsed": 63328, "internal_node_id": "0.0-23.0", "key_press": -1, "trial_index": 23}, {"rt": -1, "trial_type": "single-stim", "stimulus": "<div class = imageBox><img class = image src = img/line_images/23_mis_01_02.png </img></div>", "time_elapsed": 64530, "internal_node_id": "0.0-24.0", "key_press": -1, "trial_index": 24}, {"rt": -1, "trial_type": "single-stim", "stimulus": "<div class = centerbox style = text-align:center><p style = font-size:50px>Same or different? </p></div>", "internal_node_id": "0.0-25.0", "response": ["same"], "time_elapsed": 65916, "key_press": 49, "correct": true, "trial_index": 25}, {"rt": -1, "trial_type": "single-stim", "stimulus": "<div class = centerbox style = text-align:center><p style = font-size:40px><span class = 'large' style = 'color:green'>Correct!</span> </p></div>", "time_elapsed": 67419, "internal_node_id": "0.0-26.0", "key_press": -1, "trial_index": 26}, {"rt": -1, "trial_type": "single-stim", "stimulus": "<div class = imageBox><img class = image src = img/line_images/24_target_01_01.png </img></div>", "time_elapsed": 68621, "internal_node_id": "0.0-27.0", "key_press": -1, "trial_index": 27}, {"rt": -1, "trial_type": "single-stim", "stimulus": "<div class = imageBox><img class = image src = img/Pmask3.jpg </img></div>", "trial_id": "mask", "time_elapsed": 70024, "internal_node_id": "0.0-28.0", "key_press": -1, "trial_index": 28}, {"rt": -1, "trial_type": "single-stim", "stimulus": "<div class = imageBox><img class = image src = img/line_images/24_al_02_01.png </img></div>", "time_elapsed": 71226, "internal_node_id": "0.0-29.0", "key_press": -1, "trial_index": 29}, {"rt": -1, "trial_type": "single-stim", "stimulus": "<div class = centerbox style = text-align:center><p style = font-size:50px>Same or different? </p></div>", "internal_node_id": "0.0-30.0", "response": ["different"], "time_elapsed": 72503, "key_press": 48, "correct": true, "trial_index": 30}, {"rt": -1, "trial_type": "single-stim", "stimulus": "<div class = centerbox style = text-align:center><p style = font-size:40px><span class = 'large' style = 'color:green'>Correct!</span> </p></div>", "time_elapsed": 74005, "internal_node_id": "0.0-31.0", "key_press": -1, "trial_index": 31}, {"rt": -1, "trial_type": "single-stim", "stimulus": "<div class = imageBox><img class = image src = img/line_images/22_target_01_01.png </img></div>", "time_elapsed": 75207, "internal_node_id": "0.0-32.0", "key_press": -1, "trial_index": 32}, {"rt": -1, "trial_type": "single-stim", "stimulus": "<div class = imageBox><img class = image src = img/Pmask3.jpg </img></div>", "trial_id": "mask", "time_elapsed": 76609, "internal_node_id": "0.0-33.0", "key_press": -1, "trial_index": 33}, {"rt": -1, "trial_type": "single-stim", "stimulus": "<div class = imageBox><img class = image src = img/line_images/22_al_01_01.png </img></div>", "time_elapsed": 77811, "internal_node_id": "0.0-34.0", "key_press": -1, "trial_index": 34}, {"rt": -1, "trial_type": "single-stim", "stimulus": "<div class = centerbox style = text-align:center><p style = font-size:50px>Same or different? </p></div>", "internal_node_id": "0.0-35.0", "response": ["same"], "time_elapsed": 79091, "key_press": 49, "correct": true, "trial_index": 35}, {"rt": -1, "trial_type": "single-stim", "stimulus": "<div class = centerbox style = text-align:center><p style = font-size:40px><span class = 'large' style = 'color:green'>Correct!</span> </p></div>", "time_elapsed": 80594, "internal_node_id": "0.0-36.0", "key_press": -1, "trial_index": 36}, {"rt": -1, "trial_type": "single-stim", "stimulus": "<div class = imageBox><img class = image src = img/line_images/21_target_01_01.png </img></div>", "time_elapsed": 81796, "internal_node_id": "0.0-37.0", "key_press": -1, "trial_index": 37}, {"rt": -1, "trial_type": "single-stim", "stimulus": "<div class = imageBox><img class = image src = img/Pmask5.jpg </img></div>", "trial_id": "mask", "time_elapsed": 83198, "internal_node_id": "0.0-38.0", "key_press": -1, "trial_index": 38}, {"rt": -1, "trial_type": "single-stim", "stimulus": "<div class = imageBox><img class = image src = img/line_images/21_al_02_01.png </img></div>", "time_elapsed": 84400, "internal_node_id": "0.0-39.0", "key_press": -1, "trial_index": 39}, {"rt": -1, "trial_type": "single-stim", "stimulus": "<div class = centerbox style = text-align:center><p style = font-size:50px>Same or different? </p></div>", "internal_node_id": "0.0-40.0", "response": ["different"], "time_elapsed": 85663, "key_press": 48, "correct": true, "trial_index": 40}, {"rt": -1, "trial_type": "single-stim", "stimulus": "<div class = centerbox style = text-align:center><p style = font-size:40px><span class = 'large' style = 'color:green'>Correct!</span> </p></div>", "time_elapsed": 87165, "internal_node_id": "0.0-41.0", "key_press": -1, "trial_index": 41}, {"rt": -1, "trial_type": "text", "time_elapsed": 102048, "internal_node_id": "0.0-42.0", "key_press": 13, "trial_index": 42}, {"rt": -1, "trial_type": "single-stim", "stimulus": "<div class = imageBox><img class = image src = img/line_images/4_target_01_01.png </img></div>", "trial_id": "target", "time_elapsed": 104250, "internal_node_id": "0.0-43.0", "key_press": -1, "trial_index": 43}, {"rt": -1, "trial_type": "single-stim", "stimulus": "<div class = imageBox><img class = image src = img/Pmask1.jpg </img></div>", "trial_id": "mask", "time_elapsed": 105653, "internal_node_id": "0.0-44.0", "key_press": -1, "trial_index": 44}, {"rt": -1, "trial_type": "single-stim", "stimulus": "<div class = imageBox><img class = image src = img/line_images/4_mis_01_02.png </img></div>", "trial_id": "probe", "time_elapsed": 106855, "internal_node_id": "0.0-45.0", "key_press": -1, "trial_index": 45}, {"rt": 256, "trial_type": "single-stim", "stimulus": "<div class = centerbox style = text-align:center><p style = font-size:50px>Same or different? </p></div>", "trial_id": "response_line", "time_elapsed": 108113, "response": ["same"], "internal_node_id": "0.0-46.0", "key_press": 49, "trial_index": 46, "congruency": ["incongruent"], "correct": true, "alignment": ["misaligned"]}, {"rt": -1, "trial_type": "single-stim", "stimulus": "<div class = imageBox><img class = image src = img/line_images/13_target_01_01.png </img></div>", "trial_id": "target", "time_elapsed": 109315, "internal_node_id": "0.0-47.0", "key_press": -1, "trial_index": 47}, {"rt": -1, "trial_type": "single-stim", "stimulus": "<div class = imageBox><img class = image src = img/Pmask1.jpg </img></div>", "trial_id": "mask", "time_elapsed": 110717, "internal_node_id": "0.0-48.0", "key_press": -1, "trial_index": 48}, {"rt": -1, "trial_type": "single-stim", "stimulus": "<div class = imageBox><img class = image src = img/line_images/13_al_01_01.png </img></div>", "trial_id": "probe", "time_elapsed": 111919, "internal_node_id": "0.0-49.0", "key_press": -1, "trial_index": 49}, {"rt": 275, "trial_type": "single-stim", "stimulus": "<div class = centerbox style = text-align:center><p style = font-size:50px>Same or different? </p></div>", "trial_id": "response_line", "time_elapsed": 113195, "response": ["same"], "internal_node_id": "0.0-50.0", "key_press": 49, "trial_index": 50, "congruency": ["congruent"], "correct": true, "alignment": ["aligned"]}, {"rt": -1, "trial_type": "single-stim", "stimulus": "<div class = imageBox><img class = image src = img/line_images/1_target_01_01.png </img></div>", "trial_id": "target", "time_elapsed": 114397, "internal_node_id": "0.0-51.0", "key_press": -1, "trial_index": 51}, {"rt": -1, "trial_type": "single-stim", "stimulus": "<div class = imageBox><img class = image src = img/Pmask3.jpg </img></div>", "trial_id": "mask", "time_elapsed": 115799, "internal_node_id": "0.0-52.0", "key_press": -1, "trial_index": 52}, {"rt": -1, "trial_type": "single-stim", "stimulus": "<div class = imageBox><img class = image src = img/line_images/1_mis_02_01.png </img></div>", "trial_id": "probe", "time_elapsed": 117001, "internal_node_id": "0.0-53.0", "key_press": -1, "trial_index": 53}, {"rt": 230, "trial_type": "single-stim", "stimulus": "<div class = centerbox style = text-align:center><p style = font-size:50px>Same or different? </p></div>", "trial_id": "response_line", "time_elapsed": 118233, "response": ["different"], "internal_node_id": "0.0-54.0", "key_press": 48, "trial_index": 54, "congruency": ["incongruent"], "correct": true, "alignment": ["misaligned"]}, {"rt": -1, "trial_type": "single-stim", "stimulus": "<div class = imageBox><img class = image src = img/line_images/2_target_01_01.png </img></div>", "trial_id": "target", "time_elapsed": 119435, "internal_node_id": "0.0-55.0", "key_press": -1, "trial_index": 55}, {"rt": -1, "trial_type": "single-stim", "stimulus": "<div class = imageBox><img class = image src = img/Pmask1.jpg </img></div>", "trial_id": "mask", "time_elapsed": 120837, "internal_node_id": "0.0-56.0", "key_press": -1, "trial_index": 56}, {"rt": -1, "trial_type": "single-stim", "stimulus": "<div class = imageBox><img class = image src = img/line_images/2_mis_01_01.png </img></div>", "trial_id": "probe", "time_elapsed": 122039, "internal_node_id": "0.0-57.0", "key_press": -1, "trial_index": 57}, {"rt": 241, "trial_type": "single-stim", "stimulus": "<div class = centerbox style = text-align:center><p style = font-size:50px>Same or different? </p></div>", "trial_id": "response_line", "time_elapsed": 123282, "response": ["same"], "internal_node_id": "0.0-58.0", "key_press": 48, "trial_index": 58, "congruency": ["congruent"], "correct": false, "alignment": ["misaligned"]}, {"rt": -1, "trial_type": "single-stim", "stimulus": "<div class = imageBox><img class = image src = img/line_images/20_target_01_01.png </img></div>", "trial_id": "target", "time_elapsed": 124484, "internal_node_id": "0.0-59.0", "key_press": -1, "trial_index": 59}, {"rt": -1, "trial_type": "single-stim", "stimulus": "<div class = imageBox><img class = image src = img/Pmask1.jpg </img></div>", "trial_id": "mask", "time_elapsed": 125886, "internal_node_id": "0.0-60.0", "key_press": -1, "trial_index": 60}, {"rt": -1, "trial_type": "single-stim", "stimulus": "<div class = imageBox><img class = image src = img/line_images/20_al_01_02.png </img></div>", "trial_id": "probe", "time_elapsed": 127088, "internal_node_id": "0.0-61.0", "key_press": -1, "trial_index": 61}, {"rt": 230, "trial_type": "single-stim", "stimulus": "<div class = centerbox style = text-align:center><p style = font-size:50px>Same or different? </p></div>", "trial_id": "response_line", "time_elapsed": 128320, "response": ["same"], "internal_node_id": "0.0-62.0", "key_press": 49, "trial_index": 62, "congruency": ["incongruent"], "correct": true, "alignment": ["aligned"]}, {"rt": -1, "trial_type": "single-stim", "stimulus": "<div class = imageBox><img class = image src = img/line_images/15_target_01_01.png </img></div>", "trial_id": "target", "time_elapsed": 129522, "internal_node_id": "0.0-63.0", "key_press": -1, "trial_index": 63}, {"rt": -1, "trial_type": "single-stim", "stimulus": "<div class = imageBox><img class = image src = img/Pmask5.jpg </img></div>", "trial_id": "mask", "time_elapsed": 130924, "internal_node_id": "0.0-64.0", "key_press": -1, "trial_index": 64}, {"rt": -1, "trial_type": "single-stim", "stimulus": "<div class = imageBox><img class = image src = img/line_images/15_mis_01_01.png </img></div>", "trial_id": "probe", "time_elapsed": 132126, "internal_node_id": "0.0-65.0", "key_press": -1, "trial_index": 65}, {"rt": 203, "trial_type": "single-stim", "stimulus": "<div class = centerbox style = text-align:center><p style = font-size:50px>Same or different? </p></div>", "trial_id": "response_line", "time_elapsed": 133330, "response": ["same"], "internal_node_id": "0.0-66.0", "key_press": 49, "trial_index": 66, "congruency": ["congruent"], "correct": true, "alignment": ["misaligned"]}, {"rt": -1, "trial_type": "single-stim", "stimulus": "<div class = imageBox><img class = image src = img/line_images/15_target_01_01.png </img></div>", "trial_id": "target", "time_elapsed": 134532, "internal_node_id": "0.0-67.0", "key_press": -1, "trial_index": 67}, {"rt": -1, "trial_type": "single-stim", "stimulus": "<div class = imageBox><img class = image src = img/Pmask1.jpg </img></div>", "trial_id": "mask", "time_elapsed": 135934, "internal_node_id": "0.0-68.0", "key_press": -1, "trial_index": 68}, {"rt": -1, "trial_type": "single-stim", "stimulus": "<div class = imageBox><img class = image src = img/line_images/15_mis_02_01.png </img></div>", "trial_id": "probe", "time_elapsed": 137136, "internal_node_id": "0.0-69.0", "key_press": -1, "trial_index": 69}, {"rt": 222, "trial_type": "single-stim", "stimulus": "<div class = centerbox style = text-align:center><p style = font-size:50px>Same or different? </p></div>", "trial_id": "response_line", "time_elapsed": 138360, "response": ["different"], "internal_node_id": "0.0-70.0", "key_press": 48, "trial_index": 70, "congruency": ["incongruent"], "correct": true, "alignment": ["misaligned"]}, {"rt": -1, "trial_type": "single-stim", "stimulus": "<div class = imageBox><img class = image src = img/line_images/17_target_01_01.png </img></div>", "trial_id": "target", "time_elapsed": 139562, "internal_node_id": "0.0-71.0", "key_press": -1, "trial_index": 71}, {"rt": -1, "trial_type": "single-stim", "stimulus": "<div class = imageBox><img class = image src = img/Pmask2.jpg </img></div>", "trial_id": "mask", "time_elapsed": 140965, "internal_node_id": "0.0-72.0", "key_press": -1, "trial_index": 72}, {"rt": -1, "trial_type": "single-stim", "stimulus": "<div class = imageBox><img class = image src = img/line_images/17_al_01_02.png </img></div>", "trial_id": "probe", "time_elapsed": 142167, "internal_node_id": "0.0-73.0", "key_press": -1, "trial_index": 73}, {"rt": 218, "trial_type": "single-stim", "stimulus": "<div class = centerbox style = text-align:center><p style = font-size:50px>Same or different? </p></div>", "trial_id": "response_line", "time_elapsed": 143386, "response": ["same"], "internal_node_id": "0.0-74.0", "key_press": 48, "trial_index": 74, "congruency": ["incongruent"], "correct": false, "alignment": ["aligned"]}, {"rt": -1, "trial_type": "single-stim", "stimulus": "<div class = imageBox><img class = image src = img/line_images/14_target_01_01.png </img></div>", "trial_id": "target", "time_elapsed": 144588, "internal_node_id": "0.0-75.0", "key_press": -1, "trial_index": 75}, {"rt": -1, "trial_type": "single-stim", "stimulus": "<div class = imageBox><img class = image src = img/Pmask4.jpg </img></div>", "trial_id": "mask", "time_elapsed": 145990, "internal_node_id": "0.0-76.0", "key_press": -1, "trial_index": 76}, {"rt": -1, "trial_type": "single-stim", "stimulus": "<div class = imageBox><img class = image src = img/line_images/14_al_02_02.png </img></div>", "trial_id": "probe", "time_elapsed": 147192, "internal_node_id": "0.0-77.0", "key_press": -1, "trial_index": 77}, {"rt": 127, "trial_type": "single-stim", "stimulus": "<div class = centerbox style = text-align:center><p style = font-size:50px>Same or different? </p></div>", "trial_id": "response_line", "time_elapsed": 148320, "response": ["different"], "internal_node_id": "0.0-78.0", "key_press": 48, "trial_index": 78, "congruency": ["congruent"], "correct": true, "alignment": ["aligned"]}, {"rt": -1, "trial_type": "single-stim", "stimulus": "<div class = imageBox><img class = image src = img/line_images/14_target_01_01.png </img></div>", "trial_id": "target", "time_elapsed": 149522, "internal_node_id": "0.0-79.0", "key_press": -1, "trial_index": 79}, {"rt": -1, "trial_type": "single-stim", "stimulus": "<div class = imageBox><img class = image src = img/Pmask2.jpg </img></div>", "trial_id": "mask", "time_elapsed": 150924, "internal_node_id": "0.0-80.0", "key_press": -1, "trial_index": 80}, {"rt": -1, "trial_type": "single-stim", "stimulus": "<div class = imageBox><img class = image src = img/line_images/14_mis_01_02.png </img></div>", "trial_id": "probe", "time_elapsed": 152126, "internal_node_id": "0.0-81.0", "key_press": -1, "trial_index": 81}, {"rt": 248, "trial_type": "single-stim", "stimulus": "<div class = centerbox style = text-align:center><p style = font-size:50px>Same or different? </p></div>", "trial_id": "response_line", "time_elapsed": 153376, "response": ["same"], "internal_node_id": "0.0-82.0", "key_press": 49, "trial_index": 82, "congruency": ["incongruent"], "correct": true, "alignment": ["misaligned"]}, {"rt": -1, "trial_type": "single-stim", "stimulus": "<div class = imageBox><img class = image src = img/line_images/18_target_01_01.png </img></div>", "trial_id": "target", "time_elapsed": 154578, "internal_node_id": "0.0-83.0", "key_press": -1, "trial_index": 83}, {"rt": -1, "trial_type": "single-stim", "stimulus": "<div class = imageBox><img class = image src = img/Pmask3.jpg </img></div>", "trial_id": "mask", "time_elapsed": 155980, "internal_node_id": "0.0-84.0", "key_press": -1, "trial_index": 84}, {"rt": -1, "trial_type": "single-stim", "stimulus": "<div class = imageBox><img class = image src = img/line_images/18_mis_02_01.png </img></div>", "trial_id": "probe", "time_elapsed": 157180, "internal_node_id": "0.0-85.0", "key_press": -1, "trial_index": 85}, {"rt": 187, "trial_type": "single-stim", "stimulus": "<div class = centerbox style = text-align:center><p style = font-size:50px>Same or different? </p></div>", "trial_id": "response_line", "time_elapsed": 158369, "response": ["different"], "internal_node_id": "0.0-86.0", "key_press": 48, "trial_index": 86, "congruency": ["incongruent"], "correct": true, "alignment": ["misaligned"]}, {"rt": -1, "trial_type": "single-stim", "stimulus": "<div class = imageBox><img class = image src = img/line_images/13_target_01_01.png </img></div>", "trial_id": "target", "time_elapsed": 159571, "internal_node_id": "0.0-87.0", "key_press": -1, "trial_index": 87}, {"rt": -1, "trial_type": "single-stim", "stimulus": "<div class = imageBox><img class = image src = img/Pmask1.jpg </img></div>", "trial_id": "mask", "time_elapsed": 160973, "internal_node_id": "0.0-88.0", "key_press": -1, "trial_index": 88}, {"rt": -1, "trial_type": "single-stim", "stimulus": "<div class = imageBox><img class = image src = img/line_images/13_al_02_02.png </img></div>", "trial_id": "probe", "time_elapsed": 162175, "internal_node_id": "0.0-89.0", "key_press": -1, "trial_index": 89}, {"rt": 205, "trial_type": "single-stim", "stimulus": "<div class = centerbox style = text-align:center><p style = font-size:50px>Same or different? </p></div>", "trial_id": "response_line", "time_elapsed": 163381, "response": ["different"], "internal_node_id": "0.0-90.0", "key_press": 48, "trial_index": 90, "congruency": ["congruent"], "correct": true, "alignment": ["aligned"]}, {"rt": -1, "trial_type": "single-stim", "stimulus": "<div class = imageBox><img class = image src = img/line_images/8_target_01_01.png </img></div>", "trial_id": "target", "time_elapsed": 164583, "internal_node_id": "0.0-91.0", "key_press": -1, "trial_index": 91}, {"rt": -1, "trial_type": "single-stim", "stimulus": "<div class = imageBox><img class = image src = img/Pmask1.jpg </img></div>", "trial_id": "mask", "time_elapsed": 165985, "internal_node_id": "0.0-92.0", "key_press": -1, "trial_index": 92}, {"rt": -1, "trial_type": "single-stim", "stimulus": "<div class = imageBox><img class = image src = img/line_images/8_mis_02_01.png </img></div>", "trial_id": "probe", "time_elapsed": 167187, "internal_node_id": "0.0-93.0", "key_press": -1, "trial_index": 93}, {"rt": 243, "trial_type": "single-stim", "stimulus": "<div class = centerbox style = text-align:center><p style = font-size:50px>Same or different? </p></div>", "trial_id": "response_line", "time_elapsed": 168432, "response": ["different"], "internal_node_id": "0.0-94.0", "key_press": 48, "trial_index": 94, "congruency": ["incongruent"], "correct": true, "alignment": ["misaligned"]}, {"rt": -1, "trial_type": "single-stim", "stimulus": "<div class = imageBox><img class = image src = img/line_images/10_target_01_01.png </img></div>", "trial_id": "target", "time_elapsed": 169634, "internal_node_id": "0.0-95.0", "key_press": -1, "trial_index": 95}, {"rt": -1, "trial_type": "single-stim", "stimulus": "<div class = imageBox><img class = image src = img/Pmask5.jpg </img></div>", "trial_id": "mask", "time_elapsed": 171036, "internal_node_id": "0.0-96.0", "key_press": -1, "trial_index": 96}, {"rt": -1, "trial_type": "single-stim", "stimulus": "<div class = imageBox><img class = image src = img/line_images/10_al_01_01.png </img></div>", "trial_id": "probe", "time_elapsed": 172239, "internal_node_id": "0.0-97.0", "key_press": -1, "trial_index": 97}, {"rt": 220, "trial_type": "single-stim", "stimulus": "<div class = centerbox style = text-align:center><p style = font-size:50px>Same or different? </p></div>", "trial_id": "response_line", "time_elapsed": 173461, "response": ["same"], "internal_node_id": "0.0-98.0", "key_press": 49, "trial_index": 98, "congruency": ["congruent"], "correct": true, "alignment": ["aligned"]}, {"rt": -1, "trial_type": "single-stim", "stimulus": "<div class = imageBox><img class = image src = img/line_images/10_target_01_01.png </img></div>", "trial_id": "target", "time_elapsed": 174664, "internal_node_id": "0.0-99.0", "key_press": -1, "trial_index": 99}, {"rt": -1, "trial_type": "single-stim", "stimulus": "<div class = imageBox><img class = image src = img/Pmask2.jpg </img></div>", "trial_id": "mask", "time_elapsed": 176066, "internal_node_id": "0.0-100.0", "key_press": -1, "trial_index": 100}, {"rt": -1, "trial_type": "single-stim", "stimulus": "<div class = imageBox><img class = image src = img/line_images/10_mis_01_02.png </img></div>", "trial_id": "probe", "time_elapsed": 177268, "internal_node_id": "0.0-101.0", "key_press": -1, "trial_index": 101}, {"rt": 210, "trial_type": "single-stim", "stimulus": "<div class = centerbox style = text-align:center><p style = font-size:50px>Same or different? </p></div>", "trial_id": "response_line", "time_elapsed": 178479, "response": ["same"], "internal_node_id": "0.0-102.0", "key_press": 49, "trial_index": 102, "congruency": ["incongruent"], "correct": true, "alignment": ["misaligned"]}, {"rt": -1, "trial_type": "single-stim", "stimulus": "<div class = imageBox><img class = image src = img/line_images/2_target_01_01.png </img></div>", "trial_id": "target", "time_elapsed": 179681, "internal_node_id": "0.0-103.0", "key_press": -1, "trial_index": 103}, {"rt": -1, "trial_type": "single-stim", "stimulus": "<div class = imageBox><img class = image src = img/Pmask1.jpg </img></div>", "trial_id": "mask", "time_elapsed": 181083, "internal_node_id": "0.0-104.0", "key_press": -1, "trial_index": 104}, {"rt": -1, "trial_type": "single-stim", "stimulus": "<div class = imageBox><img class = image src = img/line_images/2_mis_01_02.png </img></div>", "trial_id": "probe", "time_elapsed": 182285, "internal_node_id": "0.0-105.0", "key_press": -1, "trial_index": 105}, {"rt": 230, "trial_type": "single-stim", "stimulus": "<div class = centerbox style = text-align:center><p style = font-size:50px>Same or different? </p></div>", "trial_id": "response_line", "time_elapsed": 183517, "response": ["same"], "internal_node_id": "0.0-106.0", "key_press": 49, "trial_index": 106, "congruency": ["incongruent"], "correct": true, "alignment": ["misaligned"]}, {"rt": -1, "trial_type": "single-stim", "stimulus": "<div class = imageBox><img class = image src = img/line_images/11_target_01_01.png </img></div>", "trial_id": "target", "time_elapsed": 184719, "internal_node_id": "0.0-107.0", "key_press": -1, "trial_index": 107}, {"rt": -1, "trial_type": "single-stim", "stimulus": "<div class = imageBox><img class = image src = img/Pmask3.jpg </img></div>", "trial_id": "mask", "time_elapsed": 186121, "internal_node_id": "0.0-108.0", "key_press": -1, "trial_index": 108}, {"rt": -1, "trial_type": "single-stim", "stimulus": "<div class = imageBox><img class = image src = img/line_images/11_mis_02_01.png </img></div>", "trial_id": "probe", "time_elapsed": 187323, "internal_node_id": "0.0-109.0", "key_press": -1, "trial_index": 109}, {"rt": 162, "trial_type": "single-stim", "stimulus": "<div class = centerbox style = text-align:center><p style = font-size:50px>Same or different? </p></div>", "trial_id": "response_line", "time_elapsed": 188486, "response": ["different"], "internal_node_id": "0.0-110.0", "key_press": 48, "trial_index": 110, "congruency": ["incongruent"], "correct": true, "alignment": ["misaligned"]}, {"rt": -1, "trial_type": "single-stim", "stimulus": "<div class = imageBox><img class = image src = img/line_images/14_target_01_01.png </img></div>", "trial_id": "target", "time_elapsed": 189688, "internal_node_id": "0.0-111.0", "key_press": -1, "trial_index": 111}, {"rt": -1, "trial_type": "single-stim", "stimulus": "<div class = imageBox><img class = image src = img/Pmask1.jpg </img></div>", "trial_id": "mask", "time_elapsed": 191090, "internal_node_id": "0.0-112.0", "key_press": -1, "trial_index": 112}, {"rt": -1, "trial_type": "single-stim", "stimulus": "<div class = imageBox><img class = image src = img/line_images/14_mis_02_02.png </img></div>", "trial_id": "probe", "time_elapsed": 192293, "internal_node_id": "0.0-113.0", "key_press": -1, "trial_index": 113}, {"rt": 207, "trial_type": "single-stim", "stimulus": "<div class = centerbox style = text-align:center><p style = font-size:50px>Same or different? </p></div>", "trial_id": "response_line", "time_elapsed": 193502, "response": ["different"], "internal_node_id": "0.0-114.0", "key_press": 49, "trial_index": 114, "congruency": ["congruent"], "correct": false, "alignment": ["misaligned"]}, {"rt": -1, "trial_type": "single-stim", "stimulus": "<div class = imageBox><img class = image src = img/line_images/3_target_01_01.png </img></div>", "trial_id": "target", "time_elapsed": 194704, "internal_node_id": "0.0-115.0", "key_press": -1, "trial_index": 115}, {"rt": -1, "trial_type": "single-stim", "stimulus": "<div class = imageBox><img class = image src = img/Pmask1.jpg </img></div>", "trial_id": "mask", "time_elapsed": 196106, "internal_node_id": "0.0-116.0", "key_press": -1, "trial_index": 116}, {"rt": -1, "trial_type": "single-stim", "stimulus": "<div class = imageBox><img class = image src = img/line_images/3_mis_02_01.png </img></div>", "trial_id": "probe", "time_elapsed": 197308, "internal_node_id": "0.0-117.0", "key_press": -1, "trial_index": 117}, {"rt": 175, "trial_type": "single-stim", "stimulus": "<div class = centerbox style = text-align:center><p style = font-size:50px>Same or different? </p></div>", "trial_id": "response_line", "time_elapsed": 198485, "response": ["different"], "internal_node_id": "0.0-118.0", "key_press": 48, "trial_index": 118, "congruency": ["incongruent"], "correct": true, "alignment": ["misaligned"]}, {"rt": -1, "trial_type": "single-stim", "stimulus": "<div class = imageBox><img class = image src = img/line_images/3_target_01_01.png </img></div>", "trial_id": "target", "time_elapsed": 199687, "internal_node_id": "0.0-119.0", "key_press": -1, "trial_index": 119}, {"rt": -1, "trial_type": "single-stim", "stimulus": "<div class = imageBox><img class = image src = img/Pmask2.jpg </img></div>", "trial_id": "mask", "time_elapsed": 201089, "internal_node_id": "0.0-120.0", "key_press": -1, "trial_index": 120}, {"rt": -1, "trial_type": "single-stim", "stimulus": "<div class = imageBox><img class = image src = img/line_images/3_al_01_01.png </img></div>", "trial_id": "probe", "time_elapsed": 202291, "internal_node_id": "0.0-121.0", "key_press": -1, "trial_index": 121}, {"rt": 84, "trial_type": "single-stim", "stimulus": "<div class = centerbox style = text-align:center><p style = font-size:50px>Same or different? </p></div>", "trial_id": "response_line", "time_elapsed": 203376, "response": ["same"], "internal_node_id": "0.0-122.0", "key_press": 49, "trial_index": 122, "congruency": ["congruent"], "correct": true, "alignment": ["aligned"]}, {"rt": -1, "trial_type": "single-stim", "stimulus": "<div class = imageBox><img class = image src = img/line_images/2_target_01_01.png </img></div>", "trial_id": "target", "time_elapsed": 204579, "internal_node_id": "0.0-123.0", "key_press": -1, "trial_index": 123}, {"rt": -1, "trial_type": "single-stim", "stimulus": "<div class = imageBox><img class = image src = img/Pmask1.jpg </img></div>", "trial_id": "mask", "time_elapsed": 205981, "internal_node_id": "0.0-124.0", "key_press": -1, "trial_index": 124}, {"rt": -1, "trial_type": "single-stim", "stimulus": "<div class = imageBox><img class = image src = img/line_images/2_al_02_02.png </img></div>", "trial_id": "probe", "time_elapsed": 207183, "internal_node_id": "0.0-125.0", "key_press": -1, "trial_index": 125}, {"rt": 140, "trial_type": "single-stim", "stimulus": "<div class = centerbox style = text-align:center><p style = font-size:50px>Same or different? </p></div>", "trial_id": "response_line", "time_elapsed": 208324, "response": ["different"], "internal_node_id": "0.0-126.0", "key_press": 48, "trial_index": 126, "congruency": ["congruent"], "correct": true, "alignment": ["aligned"]}, {"rt": -1, "trial_type": "single-stim", "stimulus": "<div class = imageBox><img class = image src = img/line_images/11_target_01_01.png </img></div>", "trial_id": "target", "time_elapsed": 209526, "internal_node_id": "0.0-127.0", "key_press": -1, "trial_index": 127}, {"rt": -1, "trial_type": "single-stim", "stimulus": "<div class = imageBox><img class = image src = img/Pmask1.jpg </img></div>", "trial_id": "mask", "time_elapsed": 210929, "internal_node_id": "0.0-128.0", "key_press": -1, "trial_index": 128}, {"rt": -1, "trial_type": "single-stim", "stimulus": "<div class = imageBox><img class = image src = img/line_images/11_al_02_02.png </img></div>", "trial_id": "probe", "time_elapsed": 212131, "internal_node_id": "0.0-129.0", "key_press": -1, "trial_index": 129}, {"rt": 88, "trial_type": "single-stim", "stimulus": "<div class = centerbox style = text-align:center><p style = font-size:50px>Same or different? </p></div>", "trial_id": "response_line", "time_elapsed": 213221, "response": ["different"], "internal_node_id": "0.0-130.0", "key_press": 48, "trial_index": 130, "congruency": ["congruent"], "correct": true, "alignment": ["aligned"]}, {"rt": -1, "trial_type": "single-stim", "stimulus": "<div class = imageBox><img class = image src = img/line_images/13_target_01_01.png </img></div>", "trial_id": "target", "time_elapsed": 214423, "internal_node_id": "0.0-131.0", "key_press": -1, "trial_index": 131}, {"rt": -1, "trial_type": "single-stim", "stimulus": "<div class = imageBox><img class = image src = img/Pmask4.jpg </img></div>", "trial_id": "mask", "time_elapsed": 215825, "internal_node_id": "0.0-132.0", "key_press": -1, "trial_index": 132}, {"rt": -1, "trial_type": "single-stim", "stimulus": "<div class = imageBox><img class = image src = img/line_images/13_mis_02_01.png </img></div>", "trial_id": "probe", "time_elapsed": 217023, "internal_node_id": "0.0-133.0", "key_press": -1, "trial_index": 133}, {"rt": 211, "trial_type": "single-stim", "stimulus": "<div class = centerbox style = text-align:center><p style = font-size:50px>Same or different? </p></div>", "trial_id": "response_line", "time_elapsed": 218236, "response": ["different"], "internal_node_id": "0.0-134.0", "key_press": 48, "trial_index": 134, "congruency": ["incongruent"], "correct": true, "alignment": ["misaligned"]}, {"rt": -1, "trial_type": "single-stim", "stimulus": "<div class = imageBox><img class = image src = img/line_images/3_target_01_01.png </img></div>", "trial_id": "target", "time_elapsed": 219438, "internal_node_id": "0.0-135.0", "key_press": -1, "trial_index": 135}, {"rt": -1, "trial_type": "single-stim", "stimulus": "<div class = imageBox><img class = image src = img/Pmask1.jpg </img></div>", "trial_id": "mask", "time_elapsed": 220840, "internal_node_id": "0.0-136.0", "key_press": -1, "trial_index": 136}, {"rt": -1, "trial_type": "single-stim", "stimulus": "<div class = imageBox><img class = image src = img/line_images/3_mis_02_02.png </img></div>", "trial_id": "probe", "time_elapsed": 222042, "internal_node_id": "0.0-137.0", "key_press": -1, "trial_index": 137}, {"rt": 100, "trial_type": "single-stim", "stimulus": "<div class = centerbox style = text-align:center><p style = font-size:50px>Same or different? </p></div>", "trial_id": "response_line", "time_elapsed": 223144, "response": ["different"], "internal_node_id": "0.0-138.0", "key_press": 49, "trial_index": 138, "congruency": ["congruent"], "correct": false, "alignment": ["misaligned"]}, {"rt": -1, "trial_type": "single-stim", "stimulus": "<div class = imageBox><img class = image src = img/line_images/14_target_01_01.png </img></div>", "trial_id": "target", "time_elapsed": 224346, "internal_node_id": "0.0-139.0", "key_press": -1, "trial_index": 139}, {"rt": -1, "trial_type": "single-stim", "stimulus": "<div class = imageBox><img class = image src = img/Pmask5.jpg </img></div>", "trial_id": "mask", "time_elapsed": 225748, "internal_node_id": "0.0-140.0", "key_press": -1, "trial_index": 140}, {"rt": -1, "trial_type": "single-stim", "stimulus": "<div class = imageBox><img class = image src = img/line_images/14_al_02_01.png </img></div>", "trial_id": "probe", "time_elapsed": 226951, "internal_node_id": "0.0-141.0", "key_press": -1, "trial_index": 141}, {"rt": 231, "trial_type": "single-stim", "stimulus": "<div class = centerbox style = text-align:center><p style = font-size:50px>Same or different? </p></div>", "trial_id": "response_line", "time_elapsed": 228185, "response": ["different"], "internal_node_id": "0.0-142.0", "key_press": 49, "trial_index": 142, "congruency": ["incongruent"], "correct": false, "alignment": ["aligned"]}, {"rt": -1, "trial_type": "single-stim", "stimulus": "<div class = imageBox><img class = image src = img/line_images/10_target_01_01.png </img></div>", "trial_id": "target", "time_elapsed": 229387, "internal_node_id": "0.0-143.0", "key_press": -1, "trial_index": 143}, {"rt": -1, "trial_type": "single-stim", "stimulus": "<div class = imageBox><img class = image src = img/Pmask3.jpg </img></div>", "trial_id": "mask", "time_elapsed": 230789, "internal_node_id": "0.0-144.0", "key_press": -1, "trial_index": 144}, {"rt": -1, "trial_type": "single-stim", "stimulus": "<div class = imageBox><img class = image src = img/line_images/10_mis_02_02.png </img></div>", "trial_id": "probe", "time_elapsed": 231991, "internal_node_id": "0.0-145.0", "key_press": -1, "trial_index": 145}, {"rt": 179, "trial_type": "single-stim", "stimulus": "<div class = centerbox style = text-align:center><p style = font-size:50px>Same or different? </p></div>", "trial_id": "response_line", "time_elapsed": 233171, "response": ["different"], "internal_node_id": "0.0-146.0", "key_press": 48, "trial_index": 146, "congruency": ["congruent"], "correct": true, "alignment": ["misaligned"]}, {"rt": -1, "trial_type": "single-stim", "stimulus": "<div class = imageBox><img class = image src = img/line_images/4_target_01_01.png </img></div>", "trial_id": "target", "time_elapsed": 234373, "internal_node_id": "0.0-147.0", "key_press": -1, "trial_index": 147}, {"rt": -1, "trial_type": "single-stim", "stimulus": "<div class = imageBox><img class = image src = img/Pmask2.jpg </img></div>", "trial_id": "mask", "time_elapsed": 235775, "internal_node_id": "0.0-148.0", "key_press": -1, "trial_index": 148}, {"rt": -1, "trial_type": "single-stim", "stimulus": "<div class = imageBox><img class = image src = img/line_images/4_mis_02_01.png </img></div>", "trial_id": "probe", "time_elapsed": 236977, "internal_node_id": "0.0-149.0", "key_press": -1, "trial_index": 149}, {"rt": 118, "trial_type": "single-stim", "stimulus": "<div class = centerbox style = text-align:center><p style = font-size:50px>Same or different? </p></div>", "trial_id": "response_line", "time_elapsed": 238096, "response": ["different"], "internal_node_id": "0.0-150.0", "key_press": 48, "trial_index": 150, "congruency": ["incongruent"], "correct": true, "alignment": ["misaligned"]}, {"rt": -1, "trial_type": "single-stim", "stimulus": "<div class = imageBox><img class = image src = img/line_images/5_target_01_01.png </img></div>", "trial_id": "target", "time_elapsed": 239299, "internal_node_id": "0.0-151.0", "key_press": -1, "trial_index": 151}, {"rt": -1, "trial_type": "single-stim", "stimulus": "<div class = imageBox><img class = image src = img/Pmask5.jpg </img></div>", "trial_id": "mask", "time_elapsed": 240701, "internal_node_id": "0.0-152.0", "key_press": -1, "trial_index": 152}, {"rt": -1, "trial_type": "single-stim", "stimulus": "<div class = imageBox><img class = image src = img/line_images/5_al_01_01.png </img></div>", "trial_id": "probe", "time_elapsed": 241903, "internal_node_id": "0.0-153.0", "key_press": -1, "trial_index": 153}, {"rt": 183, "trial_type": "single-stim", "stimulus": "<div class = centerbox style = text-align:center><p style = font-size:50px>Same or different? </p></div>", "trial_id": "response_line", "time_elapsed": 243088, "response": ["same"], "internal_node_id": "0.0-154.0", "key_press": 49, "trial_index": 154, "congruency": ["congruent"], "correct": true, "alignment": ["aligned"]}, {"rt": -1, "trial_type": "single-stim", "stimulus": "<div class = imageBox><img class = image src = img/line_images/12_target_01_01.png </img></div>", "trial_id": "target", "time_elapsed": 244290, "internal_node_id": "0.0-155.0", "key_press": -1, "trial_index": 155}, {"rt": -1, "trial_type": "single-stim", "stimulus": "<div class = imageBox><img class = image src = img/Pmask5.jpg </img></div>", "trial_id": "mask", "time_elapsed": 245693, "internal_node_id": "0.0-156.0", "key_press": -1, "trial_index": 156}, {"rt": -1, "trial_type": "single-stim", "stimulus": "<div class = imageBox><img class = image src = img/line_images/12_al_01_02.png </img></div>", "trial_id": "probe", "time_elapsed": 246895, "internal_node_id": "0.0-157.0", "key_press": -1, "trial_index": 157}, {"rt": 122, "trial_type": "single-stim", "stimulus": "<div class = centerbox style = text-align:center><p style = font-size:50px>Same or different? </p></div>", "trial_id": "response_line", "time_elapsed": 248018, "response": ["same"], "internal_node_id": "0.0-158.0", "key_press": 49, "trial_index": 158, "congruency": ["incongruent"], "correct": true, "alignment": ["aligned"]}, {"rt": -1, "trial_type": "single-stim", "stimulus": "<div class = imageBox><img class = image src = img/line_images/15_target_01_01.png </img></div>", "trial_id": "target", "time_elapsed": 249220, "internal_node_id": "0.0-159.0", "key_press": -1, "trial_index": 159}, {"rt": -1, "trial_type": "single-stim", "stimulus": "<div class = imageBox><img class = image src = img/Pmask5.jpg </img></div>", "trial_id": "mask", "time_elapsed": 250622, "internal_node_id": "0.0-160.0", "key_press": -1, "trial_index": 160}, {"rt": -1, "trial_type": "single-stim", "stimulus": "<div class = imageBox><img class = image src = img/line_images/15_al_01_02.png </img></div>", "trial_id": "probe", "time_elapsed": 251824, "internal_node_id": "0.0-161.0", "key_press": -1, "trial_index": 161}, {"rt": 71, "trial_type": "single-stim", "stimulus": "<div class = centerbox style = text-align:center><p style = font-size:50px>Same or different? </p></div>", "trial_id": "response_line", "time_elapsed": 252896, "response": ["same"], "internal_node_id": "0.0-162.0", "key_press": 49, "trial_index": 162, "congruency": ["incongruent"], "correct": true, "alignment": ["aligned"]}, {"rt": -1, "trial_type": "single-stim", "stimulus": "<div class = imageBox><img class = image src = img/line_images/10_target_01_01.png </img></div>", "trial_id": "target", "time_elapsed": 254098, "internal_node_id": "0.0-163.0", "key_press": -1, "trial_index": 163}, {"rt": -1, "trial_type": "single-stim", "stimulus": "<div class = imageBox><img class = image src = img/Pmask4.jpg </img></div>", "trial_id": "mask", "time_elapsed": 255500, "internal_node_id": "0.0-164.0", "key_press": -1, "trial_index": 164}, {"rt": -1, "trial_type": "single-stim", "stimulus": "<div class = imageBox><img class = image src = img/line_images/10_al_01_02.png </img></div>", "trial_id": "probe", "time_elapsed": 256702, "internal_node_id": "0.0-165.0", "key_press": -1, "trial_index": 165}, {"rt": 264, "trial_type": "single-stim", "stimulus": "<div class = centerbox style = text-align:center><p style = font-size:50px>Same or different? </p></div>", "trial_id": "response_line", "time_elapsed": 257968, "response": ["same"], "internal_node_id": "0.0-166.0", "key_press": 49, "trial_index": 166, "congruency": ["incongruent"], "correct": true, "alignment": ["aligned"]}, {"rt": -1, "trial_type": "single-stim", "stimulus": "<div class = imageBox><img class = image src = img/line_images/8_target_01_01.png </img></div>", "trial_id": "target", "time_elapsed": 259170, "internal_node_id": "0.0-167.0", "key_press": -1, "trial_index": 167}, {"rt": -1, "trial_type": "single-stim", "stimulus": "<div class = imageBox><img class = image src = img/Pmask3.jpg </img></div>", "trial_id": "mask", "time_elapsed": 260572, "internal_node_id": "0.0-168.0", "key_press": -1, "trial_index": 168}, {"rt": -1, "trial_type": "single-stim", "stimulus": "<div class = imageBox><img class = image src = img/line_images/8_al_02_02.png </img></div>", "trial_id": "probe", "time_elapsed": 261774, "internal_node_id": "0.0-169.0", "key_press": -1, "trial_index": 169}, {"rt": 298, "trial_type": "single-stim", "stimulus": "<div class = centerbox style = text-align:center><p style = font-size:50px>Same or different? </p></div>", "trial_id": "response_line", "time_elapsed": 263075, "response": ["different"], "internal_node_id": "0.0-170.0", "key_press": 48, "trial_index": 170, "congruency": ["congruent"], "correct": true, "alignment": ["aligned"]}, {"rt": -1, "trial_type": "single-stim", "stimulus": "<div class = imageBox><img class = image src = img/line_images/5_target_01_01.png </img></div>", "trial_id": "target", "time_elapsed": 264277, "internal_node_id": "0.0-171.0", "key_press": -1, "trial_index": 171}, {"rt": -1, "trial_type": "single-stim", "stimulus": "<div class = imageBox><img class = image src = img/Pmask2.jpg </img></div>", "trial_id": "mask", "time_elapsed": 265679, "internal_node_id": "0.0-172.0", "key_press": -1, "trial_index": 172}, {"rt": -1, "trial_type": "single-stim", "stimulus": "<div class = imageBox><img class = image src = img/line_images/5_al_02_01.png </img></div>", "trial_id": "probe", "time_elapsed": 266881, "internal_node_id": "0.0-173.0", "key_press": -1, "trial_index": 173}, {"rt": 230, "trial_type": "single-stim", "stimulus": "<div class = centerbox style = text-align:center><p style = font-size:50px>Same or different? </p></div>", "trial_id": "response_line", "time_elapsed": 268112, "response": ["different"], "internal_node_id": "0.0-174.0", "key_press": 48, "trial_index": 174, "congruency": ["incongruent"], "correct": true, "alignment": ["aligned"]}, {"rt": -1, "trial_type": "single-stim", "stimulus": "<div class = imageBox><img class = image src = img/line_images/20_target_01_01.png </img></div>", "trial_id": "target", "time_elapsed": 269314, "internal_node_id": "0.0-175.0", "key_press": -1, "trial_index": 175}, {"rt": -1, "trial_type": "single-stim", "stimulus": "<div class = imageBox><img class = image src = img/Pmask1.jpg </img></div>", "trial_id": "mask", "time_elapsed": 270718, "internal_node_id": "0.0-176.0", "key_press": -1, "trial_index": 176}, {"rt": -1, "trial_type": "single-stim", "stimulus": "<div class = imageBox><img class = image src = img/line_images/20_al_02_01.png </img></div>", "trial_id": "probe", "time_elapsed": 271920, "internal_node_id": "0.0-177.0", "key_press": -1, "trial_index": 177}, {"rt": 256, "trial_type": "single-stim", "stimulus": "<div class = centerbox style = text-align:center><p style = font-size:50px>Same or different? </p></div>", "trial_id": "response_line", "time_elapsed": 273178, "response": ["different"], "internal_node_id": "0.0-178.0", "key_press": 48, "trial_index": 178, "congruency": ["incongruent"], "correct": true, "alignment": ["aligned"]}, {"rt": -1, "trial_type": "single-stim", "stimulus": "<div class = imageBox><img class = image src = img/line_images/7_target_01_01.png </img></div>", "trial_id": "target", "time_elapsed": 274380, "internal_node_id": "0.0-179.0", "key_press": -1, "trial_index": 179}, {"rt": -1, "trial_type": "single-stim", "stimulus": "<div class = imageBox><img class = image src = img/Pmask3.jpg </img></div>", "trial_id": "mask", "time_elapsed": 275782, "internal_node_id": "0.0-180.0", "key_press": -1, "trial_index": 180}, {"rt": -1, "trial_type": "single-stim", "stimulus": "<div class = imageBox><img class = image src = img/line_images/7_al_02_02.png </img></div>", "trial_id": "probe", "time_elapsed": 276984, "internal_node_id": "0.0-181.0", "key_press": -1, "trial_index": 181}, {"rt": 206, "trial_type": "single-stim", "stimulus": "<div class = centerbox style = text-align:center><p style = font-size:50px>Same or different? </p></div>", "trial_id": "response_line", "time_elapsed": 278188, "response": ["different"], "internal_node_id": "0.0-182.0", "key_press": 48, "trial_index": 182, "congruency": ["congruent"], "correct": true, "alignment": ["aligned"]}, {"rt": -1, "trial_type": "single-stim", "stimulus": "<div class = imageBox><img class = image src = img/line_images/15_target_01_01.png </img></div>", "trial_id": "target", "time_elapsed": 279390, "internal_node_id": "0.0-183.0", "key_press": -1, "trial_index": 183}, {"rt": -1, "trial_type": "single-stim", "stimulus": "<div class = imageBox><img class = image src = img/Pmask5.jpg </img></div>", "trial_id": "mask", "time_elapsed": 280793, "internal_node_id": "0.0-184.0", "key_press": -1, "trial_index": 184}, {"rt": -1, "trial_type": "single-stim", "stimulus": "<div class = imageBox><img class = image src = img/line_images/15_al_02_01.png </img></div>", "trial_id": "probe", "time_elapsed": 281995, "internal_node_id": "0.0-185.0", "key_press": -1, "trial_index": 185}, {"rt": 219, "trial_type": "single-stim", "stimulus": "<div class = centerbox style = text-align:center><p style = font-size:50px>Same or different? </p></div>", "trial_id": "response_line", "time_elapsed": 283215, "response": ["different"], "internal_node_id": "0.0-186.0", "key_press": 48, "trial_index": 186, "congruency": ["incongruent"], "correct": true, "alignment": ["aligned"]}, {"rt": -1, "trial_type": "single-stim", "stimulus": "<div class = imageBox><img class = image src = img/line_images/9_target_01_01.png </img></div>", "trial_id": "target", "time_elapsed": 284417, "internal_node_id": "0.0-187.0", "key_press": -1, "trial_index": 187}, {"rt": -1, "trial_type": "single-stim", "stimulus": "<div class = imageBox><img class = image src = img/Pmask4.jpg </img></div>", "trial_id": "mask", "time_elapsed": 285819, "internal_node_id": "0.0-188.0", "key_press": -1, "trial_index": 188}, {"rt": -1, "trial_type": "single-stim", "stimulus": "<div class = imageBox><img class = image src = img/line_images/9_al_01_02.png </img></div>", "trial_id": "probe", "time_elapsed": 287021, "internal_node_id": "0.0-189.0", "key_press": -1, "trial_index": 189}, {"rt": 103, "trial_type": "single-stim", "stimulus": "<div class = centerbox style = text-align:center><p style = font-size:50px>Same or different? </p></div>", "trial_id": "response_line", "time_elapsed": 288125, "response": ["same"], "internal_node_id": "0.0-190.0", "key_press": 49, "trial_index": 190, "congruency": ["incongruent"], "correct": true, "alignment": ["aligned"]}, {"rt": -1, "trial_type": "single-stim", "stimulus": "<div class = imageBox><img class = image src = img/line_images/8_target_01_01.png </img></div>", "trial_id": "target", "time_elapsed": 289327, "internal_node_id": "0.0-191.0", "key_press": -1, "trial_index": 191}, {"rt": -1, "trial_type": "single-stim", "stimulus": "<div class = imageBox><img class = image src = img/Pmask3.jpg </img></div>", "trial_id": "mask", "time_elapsed": 290729, "internal_node_id": "0.0-192.0", "key_press": -1, "trial_index": 192}, {"rt": -1, "trial_type": "single-stim", "stimulus": "<div class = imageBox><img class = image src = img/line_images/8_al_02_01.png </img></div>", "trial_id": "probe", "time_elapsed": 291931, "internal_node_id": "0.0-193.0", "key_press": -1, "trial_index": 193}, {"rt": 240, "trial_type": "single-stim", "stimulus": "<div class = centerbox style = text-align:center><p style = font-size:50px>Same or different? </p></div>", "trial_id": "response_line", "time_elapsed": 293173, "response": ["different"], "internal_node_id": "0.0-194.0", "key_press": 48, "trial_index": 194, "congruency": ["incongruent"], "correct": true, "alignment": ["aligned"]}, {"rt": -1, "trial_type": "single-stim", "stimulus": "<div class = imageBox><img class = image src = img/line_images/6_target_01_01.png </img></div>", "trial_id": "target", "time_elapsed": 294375, "internal_node_id": "0.0-195.0", "key_press": -1, "trial_index": 195}, {"rt": -1, "trial_type": "single-stim", "stimulus": "<div class = imageBox><img class = image src = img/Pmask3.jpg </img></div>", "trial_id": "mask", "time_elapsed": 295777, "internal_node_id": "0.0-196.0", "key_press": -1, "trial_index": 196}, {"rt": -1, "trial_type": "single-stim", "stimulus": "<div class = imageBox><img class = image src = img/line_images/6_mis_01_02.png </img></div>", "trial_id": "probe", "time_elapsed": 296979, "internal_node_id": "0.0-197.0", "key_press": -1, "trial_index": 197}, {"rt": 211, "trial_type": "single-stim", "stimulus": "<div class = centerbox style = text-align:center><p style = font-size:50px>Same or different? </p></div>", "trial_id": "response_line", "time_elapsed": 298192, "response": ["same"], "internal_node_id": "0.0-198.0", "key_press": 49, "trial_index": 198, "congruency": ["incongruent"], "correct": true, "alignment": ["misaligned"]}, {"rt": -1, "trial_type": "single-stim", "stimulus": "<div class = imageBox><img class = image src = img/line_images/17_target_01_01.png </img></div>", "trial_id": "target", "time_elapsed": 299394, "internal_node_id": "0.0-199.0", "key_press": -1, "trial_index": 199}, {"rt": -1, "trial_type": "single-stim", "stimulus": "<div class = imageBox><img class = image src = img/Pmask3.jpg </img></div>", "trial_id": "mask", "time_elapsed": 300796, "internal_node_id": "0.0-200.0", "key_press": -1, "trial_index": 200}, {"rt": -1, "trial_type": "single-stim", "stimulus": "<div class = imageBox><img class = image src = img/line_images/17_mis_01_01.png </img></div>", "trial_id": "probe", "time_elapsed": 301998, "internal_node_id": "0.0-201.0", "key_press": -1, "trial_index": 201}, {"rt": 246, "trial_type": "single-stim", "stimulus": "<div class = centerbox style = text-align:center><p style = font-size:50px>Same or different? </p></div>", "trial_id": "response_line", "time_elapsed": 303245, "response": ["same"], "internal_node_id": "0.0-202.0", "key_press": 48, "trial_index": 202, "congruency": ["congruent"], "correct": false, "alignment": ["misaligned"]}, {"rt": -1, "trial_type": "single-stim", "stimulus": "<div class = imageBox><img class = image src = img/line_images/16_target_01_01.png </img></div>", "trial_id": "target", "time_elapsed": 304447, "internal_node_id": "0.0-203.0", "key_press": -1, "trial_index": 203}, {"rt": -1, "trial_type": "single-stim", "stimulus": "<div class = imageBox><img class = image src = img/Pmask4.jpg </img></div>", "trial_id": "mask", "time_elapsed": 305849, "internal_node_id": "0.0-204.0", "key_press": -1, "trial_index": 204}, {"rt": -1, "trial_type": "single-stim", "stimulus": "<div class = imageBox><img class = image src = img/line_images/16_mis_02_02.png </img></div>", "trial_id": "probe", "time_elapsed": 307051, "internal_node_id": "0.0-205.0", "key_press": -1, "trial_index": 205}, {"rt": 283, "trial_type": "single-stim", "stimulus": "<div class = centerbox style = text-align:center><p style = font-size:50px>Same or different? </p></div>", "trial_id": "response_line", "time_elapsed": 308335, "response": ["different"], "internal_node_id": "0.0-206.0", "key_press": 48, "trial_index": 206, "congruency": ["congruent"], "correct": true, "alignment": ["misaligned"]}, {"rt": -1, "trial_type": "single-stim", "stimulus": "<div class = imageBox><img class = image src = img/line_images/12_target_01_01.png </img></div>", "trial_id": "target", "time_elapsed": 309537, "internal_node_id": "0.0-207.0", "key_press": -1, "trial_index": 207}, {"rt": -1, "trial_type": "single-stim", "stimulus": "<div class = imageBox><img class = image src = img/Pmask3.jpg </img></div>", "trial_id": "mask", "time_elapsed": 310939, "internal_node_id": "0.0-208.0", "key_press": -1, "trial_index": 208}, {"rt": -1, "trial_type": "single-stim", "stimulus": "<div class = imageBox><img class = image src = img/line_images/12_al_02_01.png </img></div>", "trial_id": "probe", "time_elapsed": 312141, "internal_node_id": "0.0-209.0", "key_press": -1, "trial_index": 209}, {"rt": 158, "trial_type": "single-stim", "stimulus": "<div class = centerbox style = text-align:center><p style = font-size:50px>Same or different? </p></div>", "trial_id": "response_line", "time_elapsed": 313300, "response": ["different"], "internal_node_id": "0.0-210.0", "key_press": 48, "trial_index": 210, "congruency": ["incongruent"], "correct": true, "alignment": ["aligned"]}, {"rt": -1, "trial_type": "single-stim", "stimulus": "<div class = imageBox><img class = image src = img/line_images/15_target_01_01.png </img></div>", "trial_id": "target", "time_elapsed": 314502, "internal_node_id": "0.0-211.0", "key_press": -1, "trial_index": 211}, {"rt": -1, "trial_type": "single-stim", "stimulus": "<div class = imageBox><img class = image src = img/Pmask5.jpg </img></div>", "trial_id": "mask", "time_elapsed": 315905, "internal_node_id": "0.0-212.0", "key_press": -1, "trial_index": 212}, {"rt": -1, "trial_type": "single-stim", "stimulus": "<div class = imageBox><img class = image src = img/line_images/15_al_01_01.png </img></div>", "trial_id": "probe", "time_elapsed": 317107, "internal_node_id": "0.0-213.0", "key_press": -1, "trial_index": 213}, {"rt": 129, "trial_type": "single-stim", "stimulus": "<div class = centerbox style = text-align:center><p style = font-size:50px>Same or different? </p></div>", "trial_id": "response_line", "time_elapsed": 318237, "response": ["same"], "internal_node_id": "0.0-214.0", "key_press": 49, "trial_index": 214, "congruency": ["congruent"], "correct": true, "alignment": ["aligned"]}, {"rt": -1, "trial_type": "single-stim", "stimulus": "<div class = imageBox><img class = image src = img/line_images/5_target_01_01.png </img></div>", "trial_id": "target", "time_elapsed": 319439, "internal_node_id": "0.0-215.0", "key_press": -1, "trial_index": 215}, {"rt": -1, "trial_type": "single-stim", "stimulus": "<div class = imageBox><img class = image src = img/Pmask1.jpg </img></div>", "trial_id": "mask", "time_elapsed": 320841, "internal_node_id": "0.0-216.0", "key_press": -1, "trial_index": 216}, {"rt": -1, "trial_type": "single-stim", "stimulus": "<div class = imageBox><img class = image src = img/line_images/5_al_01_02.png </img></div>", "trial_id": "probe", "time_elapsed": 322043, "internal_node_id": "0.0-217.0", "key_press": -1, "trial_index": 217}, {"rt": 226, "trial_type": "single-stim", "stimulus": "<div class = centerbox style = text-align:center><p style = font-size:50px>Same or different? </p></div>", "trial_id": "response_line", "time_elapsed": 323271, "response": ["same"], "internal_node_id": "0.0-218.0", "key_press": 49, "trial_index": 218, "congruency": ["incongruent"], "correct": true, "alignment": ["aligned"]}, {"rt": -1, "trial_type": "single-stim", "stimulus": "<div class = imageBox><img class = image src = img/line_images/14_target_01_01.png </img></div>", "trial_id": "target", "time_elapsed": 324473, "internal_node_id": "0.0-219.0", "key_press": -1, "trial_index": 219}, {"rt": -1, "trial_type": "single-stim", "stimulus": "<div class = imageBox><img class = image src = img/Pmask1.jpg </img></div>", "trial_id": "mask", "time_elapsed": 325875, "internal_node_id": "0.0-220.0", "key_press": -1, "trial_index": 220}, {"rt": -1, "trial_type": "single-stim", "stimulus": "<div class = imageBox><img class = image src = img/line_images/14_mis_01_01.png </img></div>", "trial_id": "probe", "time_elapsed": 327077, "internal_node_id": "0.0-221.0", "key_press": -1, "trial_index": 221}, {"rt": 54, "trial_type": "single-stim", "stimulus": "<div class = centerbox style = text-align:center><p style = font-size:50px>Same or different? </p></div>", "trial_id": "response_line", "time_elapsed": 328132, "response": ["same"], "internal_node_id": "0.0-222.0", "key_press": 49, "trial_index": 222, "congruency": ["congruent"], "correct": true, "alignment": ["misaligned"]}, {"rt": -1, "trial_type": "single-stim", "stimulus": "<div class = imageBox><img class = image src = img/line_images/17_target_01_01.png </img></div>", "trial_id": "target", "time_elapsed": 329334, "internal_node_id": "0.0-223.0", "key_press": -1, "trial_index": 223}, {"rt": -1, "trial_type": "single-stim", "stimulus": "<div class = imageBox><img class = image src = img/Pmask1.jpg </img></div>", "trial_id": "mask", "time_elapsed": 330736, "internal_node_id": "0.0-224.0", "key_press": -1, "trial_index": 224}, {"rt": -1, "trial_type": "single-stim", "stimulus": "<div class = imageBox><img class = image src = img/line_images/17_al_02_02.png </img></div>", "trial_id": "probe", "time_elapsed": 331938, "internal_node_id": "0.0-225.0", "key_press": -1, "trial_index": 225}, {"rt": 113, "trial_type": "single-stim", "stimulus": "<div class = centerbox style = text-align:center><p style = font-size:50px>Same or different? </p></div>", "trial_id": "response_line", "time_elapsed": 333053, "response": ["different"], "internal_node_id": "0.0-226.0", "key_press": 48, "trial_index": 226, "congruency": ["congruent"], "correct": true, "alignment": ["aligned"]}, {"rt": -1, "trial_type": "single-stim", "stimulus": "<div class = imageBox><img class = image src = img/line_images/7_target_01_01.png </img></div>", "trial_id": "target", "time_elapsed": 334255, "internal_node_id": "0.0-227.0", "key_press": -1, "trial_index": 227}, {"rt": -1, "trial_type": "single-stim", "stimulus": "<div class = imageBox><img class = image src = img/Pmask1.jpg </img></div>", "trial_id": "mask", "time_elapsed": 335657, "internal_node_id": "0.0-228.0", "key_press": -1, "trial_index": 228}, {"rt": -1, "trial_type": "single-stim", "stimulus": "<div class = imageBox><img class = image src = img/line_images/7_mis_01_01.png </img></div>", "trial_id": "probe", "time_elapsed": 336859, "internal_node_id": "0.0-229.0", "key_press": -1, "trial_index": 229}, {"rt": 222, "trial_type": "single-stim", "stimulus": "<div class = centerbox style = text-align:center><p style = font-size:50px>Same or different? </p></div>", "trial_id": "response_line", "time_elapsed": 338082, "response": ["same"], "internal_node_id": "0.0-230.0", "key_press": 49, "trial_index": 230, "congruency": ["congruent"], "correct": true, "alignment": ["misaligned"]}, {"rt": -1, "trial_type": "single-stim", "stimulus": "<div class = imageBox><img class = image src = img/line_images/18_target_01_01.png </img></div>", "trial_id": "target", "time_elapsed": 339284, "internal_node_id": "0.0-231.0", "key_press": -1, "trial_index": 231}, {"rt": -1, "trial_type": "single-stim", "stimulus": "<div class = imageBox><img class = image src = img/Pmask3.jpg </img></div>", "trial_id": "mask", "time_elapsed": 340686, "internal_node_id": "0.0-232.0", "key_press": -1, "trial_index": 232}, {"rt": -1, "trial_type": "single-stim", "stimulus": "<div class = imageBox><img class = image src = img/line_images/18_al_02_02.png </img></div>", "trial_id": "probe", "time_elapsed": 341889, "internal_node_id": "0.0-233.0", "key_press": -1, "trial_index": 233}, {"rt": 118, "trial_type": "single-stim", "stimulus": "<div class = centerbox style = text-align:center><p style = font-size:50px>Same or different? </p></div>", "trial_id": "response_line", "time_elapsed": 343008, "response": ["different"], "internal_node_id": "0.0-234.0", "key_press": 48, "trial_index": 234, "congruency": ["congruent"], "correct": true, "alignment": ["aligned"]}, {"rt": -1, "trial_type": "single-stim", "stimulus": "<div class = imageBox><img class = image src = img/line_images/11_target_01_01.png </img></div>", "trial_id": "target", "time_elapsed": 344210, "internal_node_id": "0.0-235.0", "key_press": -1, "trial_index": 235}, {"rt": -1, "trial_type": "single-stim", "stimulus": "<div class = imageBox><img class = image src = img/Pmask4.jpg </img></div>", "trial_id": "mask", "time_elapsed": 345612, "internal_node_id": "0.0-236.0", "key_press": -1, "trial_index": 236}, {"rt": -1, "trial_type": "single-stim", "stimulus": "<div class = imageBox><img class = image src = img/line_images/11_mis_01_02.png </img></div>", "trial_id": "probe", "time_elapsed": 346814, "internal_node_id": "0.0-237.0", "key_press": -1, "trial_index": 237}, {"rt": 193, "trial_type": "single-stim", "stimulus": "<div class = centerbox style = text-align:center><p style = font-size:50px>Same or different? </p></div>", "trial_id": "response_line", "time_elapsed": 348009, "response": ["same"], "internal_node_id": "0.0-238.0", "key_press": 49, "trial_index": 238, "congruency": ["incongruent"], "correct": true, "alignment": ["misaligned"]}, {"rt": -1, "trial_type": "single-stim", "stimulus": "<div class = imageBox><img class = image src = img/line_images/20_target_01_01.png </img></div>", "trial_id": "target", "time_elapsed": 349211, "internal_node_id": "0.0-239.0", "key_press": -1, "trial_index": 239}, {"rt": -1, "trial_type": "single-stim", "stimulus": "<div class = imageBox><img class = image src = img/Pmask1.jpg </img></div>", "trial_id": "mask", "time_elapsed": 350614, "internal_node_id": "0.0-240.0", "key_press": -1, "trial_index": 240}, {"rt": -1, "trial_type": "single-stim", "stimulus": "<div class = imageBox><img class = image src = img/line_images/20_mis_02_01.png </img></div>", "trial_id": "probe", "time_elapsed": 351816, "internal_node_id": "0.0-241.0", "key_press": -1, "trial_index": 241}, {"rt": 42, "trial_type": "single-stim", "stimulus": "<div class = centerbox style = text-align:center><p style = font-size:50px>Same or different? </p></div>", "trial_id": "response_line", "time_elapsed": 352859, "response": ["different"], "internal_node_id": "0.0-242.0", "key_press": 49, "trial_index": 242, "congruency": ["incongruent"], "correct": false, "alignment": ["misaligned"]}, {"rt": -1, "trial_type": "single-stim", "stimulus": "<div class = imageBox><img class = image src = img/line_images/7_target_01_01.png </img></div>", "trial_id": "target", "time_elapsed": 354061, "internal_node_id": "0.0-243.0", "key_press": -1, "trial_index": 243}, {"rt": -1, "trial_type": "single-stim", "stimulus": "<div class = imageBox><img class = image src = img/Pmask5.jpg </img></div>", "trial_id": "mask", "time_elapsed": 355463, "internal_node_id": "0.0-244.0", "key_press": -1, "trial_index": 244}, {"rt": -1, "trial_type": "single-stim", "stimulus": "<div class = imageBox><img class = image src = img/line_images/7_mis_01_02.png </img></div>", "trial_id": "probe", "time_elapsed": 356665, "internal_node_id": "0.0-245.0", "key_press": -1, "trial_index": 245}, {"rt": 254, "trial_type": "single-stim", "stimulus": "<div class = centerbox style = text-align:center><p style = font-size:50px>Same or different? </p></div>", "trial_id": "response_line", "time_elapsed": 357921, "response": ["same"], "internal_node_id": "0.0-246.0", "key_press": 49, "trial_index": 246, "congruency": ["incongruent"], "correct": true, "alignment": ["misaligned"]}, {"rt": -1, "trial_type": "single-stim", "stimulus": "<div class = imageBox><img class = image src = img/line_images/6_target_01_01.png </img></div>", "trial_id": "target", "time_elapsed": 359123, "internal_node_id": "0.0-247.0", "key_press": -1, "trial_index": 247}, {"rt": -1, "trial_type": "single-stim", "stimulus": "<div class = imageBox><img class = image src = img/Pmask4.jpg </img></div>", "trial_id": "mask", "time_elapsed": 360525, "internal_node_id": "0.0-248.0", "key_press": -1, "trial_index": 248}, {"rt": -1, "trial_type": "single-stim", "stimulus": "<div class = imageBox><img class = image src = img/line_images/6_al_02_01.png </img></div>", "trial_id": "probe", "time_elapsed": 361727, "internal_node_id": "0.0-249.0", "key_press": -1, "trial_index": 249}, {"rt": 138, "trial_type": "single-stim", "stimulus": "<div class = centerbox style = text-align:center><p style = font-size:50px>Same or different? </p></div>", "trial_id": "response_line", "time_elapsed": 362867, "response": ["different"], "internal_node_id": "0.0-250.0", "key_press": 48, "trial_index": 250, "congruency": ["incongruent"], "correct": true, "alignment": ["aligned"]}, {"rt": -1, "trial_type": "single-stim", "stimulus": "<div class = imageBox><img class = image src = img/line_images/18_target_01_01.png </img></div>", "trial_id": "target", "time_elapsed": 364069, "internal_node_id": "0.0-251.0", "key_press": -1, "trial_index": 251}, {"rt": -1, "trial_type": "single-stim", "stimulus": "<div class = imageBox><img class = image src = img/Pmask4.jpg </img></div>", "trial_id": "mask", "time_elapsed": 365471, "internal_node_id": "0.0-252.0", "key_press": -1, "trial_index": 252}, {"rt": -1, "trial_type": "single-stim", "stimulus": "<div class = imageBox><img class = image src = img/line_images/18_al_01_02.png </img></div>", "trial_id": "probe", "time_elapsed": 366673, "internal_node_id": "0.0-253.0", "key_press": -1, "trial_index": 253}, {"rt": 150, "trial_type": "single-stim", "stimulus": "<div class = centerbox style = text-align:center><p style = font-size:50px>Same or different? </p></div>", "trial_id": "response_line", "time_elapsed": 367825, "response": ["same"], "internal_node_id": "0.0-254.0", "key_press": 49, "trial_index": 254, "congruency": ["incongruent"], "correct": true, "alignment": ["aligned"]}, {"rt": -1, "trial_type": "single-stim", "stimulus": "<div class = imageBox><img class = image src = img/line_images/13_target_01_01.png </img></div>", "trial_id": "target", "time_elapsed": 369027, "internal_node_id": "0.0-255.0", "key_press": -1, "trial_index": 255}, {"rt": -1, "trial_type": "single-stim", "stimulus": "<div class = imageBox><img class = image src = img/Pmask2.jpg </img></div>", "trial_id": "mask", "time_elapsed": 370429, "internal_node_id": "0.0-256.0", "key_press": -1, "trial_index": 256}, {"rt": -1, "trial_type": "single-stim", "stimulus": "<div class = imageBox><img class = image src = img/line_images/13_al_01_02.png </img></div>", "trial_id": "probe", "time_elapsed": 371631, "internal_node_id": "0.0-257.0", "key_press": -1, "trial_index": 257}, {"rt": 128, "trial_type": "single-stim", "stimulus": "<div class = centerbox style = text-align:center><p style = font-size:50px>Same or different? </p></div>", "trial_id": "response_line", "time_elapsed": 372761, "response": ["same"], "internal_node_id": "0.0-258.0", "key_press": 49, "trial_index": 258, "congruency": ["incongruent"], "correct": true, "alignment": ["aligned"]}, {"rt": -1, "trial_type": "single-stim", "stimulus": "<div class = imageBox><img class = image src = img/line_images/18_target_01_01.png </img></div>", "trial_id": "target", "time_elapsed": 373963, "internal_node_id": "0.0-259.0", "key_press": -1, "trial_index": 259}, {"rt": -1, "trial_type": "single-stim", "stimulus": "<div class = imageBox><img class = image src = img/Pmask1.jpg </img></div>", "trial_id": "mask", "time_elapsed": 375365, "internal_node_id": "0.0-260.0", "key_press": -1, "trial_index": 260}, {"rt": -1, "trial_type": "single-stim", "stimulus": "<div class = imageBox><img class = image src = img/line_images/18_al_02_01.png </img></div>", "trial_id": "probe", "time_elapsed": 376567, "internal_node_id": "0.0-261.0", "key_press": -1, "trial_index": 261}, {"rt": 193, "trial_type": "single-stim", "stimulus": "<div class = centerbox style = text-align:center><p style = font-size:50px>Same or different? </p></div>", "trial_id": "response_line", "time_elapsed": 377762, "response": ["different"], "internal_node_id": "0.0-262.0", "key_press": 48, "trial_index": 262, "congruency": ["incongruent"], "correct": true, "alignment": ["aligned"]}, {"rt": -1, "trial_type": "single-stim", "stimulus": "<div class = imageBox><img class = image src = img/line_images/8_target_01_01.png </img></div>", "trial_id": "target", "time_elapsed": 378964, "internal_node_id": "0.0-263.0", "key_press": -1, "trial_index": 263}, {"rt": -1, "trial_type": "single-stim", "stimulus": "<div class = imageBox><img class = image src = img/Pmask1.jpg </img></div>", "trial_id": "mask", "time_elapsed": 380366, "internal_node_id": "0.0-264.0", "key_press": -1, "trial_index": 264}, {"rt": -1, "trial_type": "single-stim", "stimulus": "<div class = imageBox><img class = image src = img/line_images/8_mis_02_02.png </img></div>", "trial_id": "probe", "time_elapsed": 381569, "internal_node_id": "0.0-265.0", "key_press": -1, "trial_index": 265}, {"rt": 213, "trial_type": "single-stim", "stimulus": "<div class = centerbox style = text-align:center><p style = font-size:50px>Same or different? </p></div>", "trial_id": "response_line", "time_elapsed": 382784, "response": ["different"], "internal_node_id": "0.0-266.0", "key_press": 48, "trial_index": 266, "congruency": ["congruent"], "correct": true, "alignment": ["misaligned"]}, {"rt": -1, "trial_type": "single-stim", "stimulus": "<div class = imageBox><img class = image src = img/line_images/20_target_01_01.png </img></div>", "trial_id": "target", "time_elapsed": 383986, "internal_node_id": "0.0-267.0", "key_press": -1, "trial_index": 267}, {"rt": -1, "trial_type": "single-stim", "stimulus": "<div class = imageBox><img class = image src = img/Pmask4.jpg </img></div>", "trial_id": "mask", "time_elapsed": 385389, "internal_node_id": "0.0-268.0", "key_press": -1, "trial_index": 268}, {"rt": -1, "trial_type": "single-stim", "stimulus": "<div class = imageBox><img class = image src = img/line_images/20_al_01_01.png </img></div>", "trial_id": "probe", "time_elapsed": 386591, "internal_node_id": "0.0-269.0", "key_press": -1, "trial_index": 269}, {"rt": 160, "trial_type": "single-stim", "stimulus": "<div class = centerbox style = text-align:center><p style = font-size:50px>Same or different? </p></div>", "trial_id": "response_line", "time_elapsed": 387753, "response": ["same"], "internal_node_id": "0.0-270.0", "key_press": 49, "trial_index": 270, "congruency": ["congruent"], "correct": true, "alignment": ["aligned"]}, {"rt": -1, "trial_type": "single-stim", "stimulus": "<div class = imageBox><img class = image src = img/line_images/14_target_01_01.png </img></div>", "trial_id": "target", "time_elapsed": 388955, "internal_node_id": "0.0-271.0", "key_press": -1, "trial_index": 271}, {"rt": -1, "trial_type": "single-stim", "stimulus": "<div class = imageBox><img class = image src = img/Pmask5.jpg </img></div>", "trial_id": "mask", "time_elapsed": 390357, "internal_node_id": "0.0-272.0", "key_press": -1, "trial_index": 272}, {"rt": -1, "trial_type": "single-stim", "stimulus": "<div class = imageBox><img class = image src = img/line_images/14_al_01_01.png </img></div>", "trial_id": "probe", "time_elapsed": 391559, "internal_node_id": "0.0-273.0", "key_press": -1, "trial_index": 273}, {"rt": 122, "trial_type": "single-stim", "stimulus": "<div class = centerbox style = text-align:center><p style = font-size:50px>Same or different? </p></div>", "trial_id": "response_line", "time_elapsed": 392683, "response": ["same"], "internal_node_id": "0.0-274.0", "key_press": 49, "trial_index": 274, "congruency": ["congruent"], "correct": true, "alignment": ["aligned"]}, {"rt": -1, "trial_type": "single-stim", "stimulus": "<div class = imageBox><img class = image src = img/line_images/4_target_01_01.png </img></div>", "trial_id": "target", "time_elapsed": 393885, "internal_node_id": "0.0-275.0", "key_press": -1, "trial_index": 275}, {"rt": -1, "trial_type": "single-stim", "stimulus": "<div class = imageBox><img class = image src = img/Pmask3.jpg </img></div>", "trial_id": "mask", "time_elapsed": 395287, "internal_node_id": "0.0-276.0", "key_press": -1, "trial_index": 276}, {"rt": -1, "trial_type": "single-stim", "stimulus": "<div class = imageBox><img class = image src = img/line_images/4_mis_02_02.png </img></div>", "trial_id": "probe", "time_elapsed": 396489, "internal_node_id": "0.0-277.0", "key_press": -1, "trial_index": 277}, {"rt": 86, "trial_type": "single-stim", "stimulus": "<div class = centerbox style = text-align:center><p style = font-size:50px>Same or different? </p></div>", "trial_id": "response_line", "time_elapsed": 397576, "response": ["different"], "internal_node_id": "0.0-278.0", "key_press": 48, "trial_index": 278, "congruency": ["congruent"], "correct": true, "alignment": ["misaligned"]}, {"rt": -1, "trial_type": "single-stim", "stimulus": "<div class = imageBox><img class = image src = img/line_images/12_target_01_01.png </img></div>", "trial_id": "target", "time_elapsed": 398775, "internal_node_id": "0.0-279.0", "key_press": -1, "trial_index": 279}, {"rt": -1, "trial_type": "single-stim", "stimulus": "<div class = imageBox><img class = image src = img/Pmask2.jpg </img></div>", "trial_id": "mask", "time_elapsed": 400177, "internal_node_id": "0.0-280.0", "key_press": -1, "trial_index": 280}, {"rt": -1, "trial_type": "single-stim", "stimulus": "<div class = imageBox><img class = image src = img/line_images/12_mis_02_01.png </img></div>", "trial_id": "probe", "time_elapsed": 401379, "internal_node_id": "0.0-281.0", "key_press": -1, "trial_index": 281}, {"rt": 160, "trial_type": "single-stim", "stimulus": "<div class = centerbox style = text-align:center><p style = font-size:50px>Same or different? </p></div>", "trial_id": "response_line", "time_elapsed": 402542, "response": ["different"], "internal_node_id": "0.0-282.0", "key_press": 48, "trial_index": 282, "congruency": ["incongruent"], "correct": true, "alignment": ["misaligned"]}, {"rt": -1, "trial_type": "single-stim", "stimulus": "<div class = imageBox><img class = image src = img/line_images/4_target_01_01.png </img></div>", "trial_id": "target", "time_elapsed": 403744, "internal_node_id": "0.0-283.0", "key_press": -1, "trial_index": 283}, {"rt": -1, "trial_type": "single-stim", "stimulus": "<div class = imageBox><img class = image src = img/Pmask4.jpg </img></div>", "trial_id": "mask", "time_elapsed": 405146, "internal_node_id": "0.0-284.0", "key_press": -1, "trial_index": 284}, {"rt": -1, "trial_type": "single-stim", "stimulus": "<div class = imageBox><img class = image src = img/line_images/4_al_01_01.png </img></div>", "trial_id": "probe", "time_elapsed": 406348, "internal_node_id": "0.0-285.0", "key_press": -1, "trial_index": 285}, {"rt": 122, "trial_type": "single-stim", "stimulus": "<div class = centerbox style = text-align:center><p style = font-size:50px>Same or different? </p></div>", "trial_id": "response_line", "time_elapsed": 407471, "response": ["same"], "internal_node_id": "0.0-286.0", "key_press": 49, "trial_index": 286, "congruency": ["congruent"], "correct": true, "alignment": ["aligned"]}, {"rt": -1, "trial_type": "single-stim", "stimulus": "<div class = imageBox><img class = image src = img/line_images/11_target_01_01.png </img></div>", "trial_id": "target", "time_elapsed": 408673, "internal_node_id": "0.0-287.0", "key_press": -1, "trial_index": 287}, {"rt": -1, "trial_type": "single-stim", "stimulus": "<div class = imageBox><img class = image src = img/Pmask4.jpg </img></div>", "trial_id": "mask", "time_elapsed": 410075, "internal_node_id": "0.0-288.0", "key_press": -1, "trial_index": 288}, {"rt": -1, "trial_type": "single-stim", "stimulus": "<div class = imageBox><img class = image src = img/line_images/11_al_01_01.png </img></div>", "trial_id": "probe", "time_elapsed": 411277, "internal_node_id": "0.0-289.0", "key_press": -1, "trial_index": 289}, {"rt": 62, "trial_type": "single-stim", "stimulus": "<div class = centerbox style = text-align:center><p style = font-size:50px>Same or different? </p></div>", "trial_id": "response_line", "time_elapsed": 412341, "response": ["same"], "internal_node_id": "0.0-290.0", "key_press": 49, "trial_index": 290, "congruency": ["congruent"], "correct": true, "alignment": ["aligned"]}, {"rt": -1, "trial_type": "single-stim", "stimulus": "<div class = imageBox><img class = image src = img/line_images/19_target_01_01.png </img></div>", "trial_id": "target", "time_elapsed": 413543, "internal_node_id": "0.0-291.0", "key_press": -1, "trial_index": 291}, {"rt": -1, "trial_type": "single-stim", "stimulus": "<div class = imageBox><img class = image src = img/Pmask3.jpg </img></div>", "trial_id": "mask", "time_elapsed": 414945, "internal_node_id": "0.0-292.0", "key_press": -1, "trial_index": 292}, {"rt": -1, "trial_type": "single-stim", "stimulus": "<div class = imageBox><img class = image src = img/line_images/19_mis_01_01.png </img></div>", "trial_id": "probe", "time_elapsed": 416147, "internal_node_id": "0.0-293.0", "key_press": -1, "trial_index": 293}, {"rt": 72, "trial_type": "single-stim", "stimulus": "<div class = centerbox style = text-align:center><p style = font-size:50px>Same or different? </p></div>", "trial_id": "response_line", "time_elapsed": 417221, "response": ["same"], "internal_node_id": "0.0-294.0", "key_press": 49, "trial_index": 294, "congruency": ["congruent"], "correct": true, "alignment": ["misaligned"]}, {"rt": -1, "trial_type": "single-stim", "stimulus": "<div class = imageBox><img class = image src = img/line_images/16_target_01_01.png </img></div>", "trial_id": "target", "time_elapsed": 418423, "internal_node_id": "0.0-295.0", "key_press": -1, "trial_index": 295}, {"rt": -1, "trial_type": "single-stim", "stimulus": "<div class = imageBox><img class = image src = img/Pmask3.jpg </img></div>", "trial_id": "mask", "time_elapsed": 419826, "internal_node_id": "0.0-296.0", "key_press": -1, "trial_index": 296}, {"rt": -1, "trial_type": "single-stim", "stimulus": "<div class = imageBox><img class = image src = img/line_images/16_al_02_02.png </img></div>", "trial_id": "probe", "time_elapsed": 421031, "internal_node_id": "0.0-297.0", "key_press": -1, "trial_index": 297}, {"rt": 216, "trial_type": "single-stim", "stimulus": "<div class = centerbox style = text-align:center><p style = font-size:50px>Same or different? </p></div>", "trial_id": "response_line", "time_elapsed": 422248, "response": ["different"], "internal_node_id": "0.0-298.0", "key_press": 48, "trial_index": 298, "congruency": ["congruent"], "correct": true, "alignment": ["aligned"]}, {"rt": -1, "trial_type": "single-stim", "stimulus": "<div class = imageBox><img class = image src = img/line_images/6_target_01_01.png </img></div>", "trial_id": "target", "time_elapsed": 423450, "internal_node_id": "0.0-299.0", "key_press": -1, "trial_index": 299}, {"rt": -1, "trial_type": "single-stim", "stimulus": "<div class = imageBox><img class = image src = img/Pmask5.jpg </img></div>", "trial_id": "mask", "time_elapsed": 424852, "internal_node_id": "0.0-300.0", "key_press": -1, "trial_index": 300}, {"rt": -1, "trial_type": "single-stim", "stimulus": "<div class = imageBox><img class = image src = img/line_images/6_al_02_02.png </img></div>", "trial_id": "probe", "time_elapsed": 426054, "internal_node_id": "0.0-301.0", "key_press": -1, "trial_index": 301}, {"rt": 190, "trial_type": "single-stim", "stimulus": "<div class = centerbox style = text-align:center><p style = font-size:50px>Same or different? </p></div>", "trial_id": "response_line", "time_elapsed": 427245, "response": ["different"], "internal_node_id": "0.0-302.0", "key_press": 48, "trial_index": 302, "congruency": ["congruent"], "correct": true, "alignment": ["aligned"]}, {"rt": -1, "trial_type": "single-stim", "stimulus": "<div class = imageBox><img class = image src = img/line_images/15_target_01_01.png </img></div>", "trial_id": "target", "time_elapsed": 428447, "internal_node_id": "0.0-303.0", "key_press": -1, "trial_index": 303}, {"rt": -1, "trial_type": "single-stim", "stimulus": "<div class = imageBox><img class = image src = img/Pmask2.jpg </img></div>", "trial_id": "mask", "time_elapsed": 429849, "internal_node_id": "0.0-304.0", "key_press": -1, "trial_index": 304}, {"rt": -1, "trial_type": "single-stim", "stimulus": "<div class = imageBox><img class = image src = img/line_images/15_al_02_02.png </img></div>", "trial_id": "probe", "time_elapsed": 431051, "internal_node_id": "0.0-305.0", "key_press": -1, "trial_index": 305}, {"rt": 193, "trial_type": "single-stim", "stimulus": "<div class = centerbox style = text-align:center><p style = font-size:50px>Same or different? </p></div>", "trial_id": "response_line", "time_elapsed": 432245, "response": ["different"], "internal_node_id": "0.0-306.0", "key_press": 48, "trial_index": 306, "congruency": ["congruent"], "correct": true, "alignment": ["aligned"]}, {"rt": -1, "trial_type": "single-stim", "stimulus": "<div class = imageBox><img class = image src = img/line_images/1_target_01_01.png </img></div>", "trial_id": "target", "time_elapsed": 433447, "internal_node_id": "0.0-307.0", "key_press": -1, "trial_index": 307}, {"rt": -1, "trial_type": "single-stim", "stimulus": "<div class = imageBox><img class = image src = img/Pmask4.jpg </img></div>", "trial_id": "mask", "time_elapsed": 434849, "internal_node_id": "0.0-308.0", "key_press": -1, "trial_index": 308}, {"rt": -1, "trial_type": "single-stim", "stimulus": "<div class = imageBox><img class = image src = img/line_images/1_al_01_01.png </img></div>", "trial_id": "probe", "time_elapsed": 436051, "internal_node_id": "0.0-309.0", "key_press": -1, "trial_index": 309}, {"rt": 258, "trial_type": "single-stim", "stimulus": "<div class = centerbox style = text-align:center><p style = font-size:50px>Same or different? </p></div>", "trial_id": "response_line", "time_elapsed": 437311, "response": ["same"], "internal_node_id": "0.0-310.0", "key_press": 49, "trial_index": 310, "congruency": ["congruent"], "correct": true, "alignment": ["aligned"]}, {"rt": -1, "trial_type": "single-stim", "stimulus": "<div class = imageBox><img class = image src = img/line_images/18_target_01_01.png </img></div>", "trial_id": "target", "time_elapsed": 438513, "internal_node_id": "0.0-311.0", "key_press": -1, "trial_index": 311}, {"rt": -1, "trial_type": "single-stim", "stimulus": "<div class = imageBox><img class = image src = img/Pmask3.jpg </img></div>", "trial_id": "mask", "time_elapsed": 439915, "internal_node_id": "0.0-312.0", "key_press": -1, "trial_index": 312}, {"rt": -1, "trial_type": "single-stim", "stimulus": "<div class = imageBox><img class = image src = img/line_images/18_mis_01_02.png </img></div>", "trial_id": "probe", "time_elapsed": 441117, "internal_node_id": "0.0-313.0", "key_press": -1, "trial_index": 313}, {"rt": 95, "trial_type": "single-stim", "stimulus": "<div class = centerbox style = text-align:center><p style = font-size:50px>Same or different? </p></div>", "trial_id": "response_line", "time_elapsed": 442213, "response": ["same"], "internal_node_id": "0.0-314.0", "key_press": 49, "trial_index": 314, "congruency": ["incongruent"], "correct": true, "alignment": ["misaligned"]}, {"rt": -1, "trial_type": "single-stim", "stimulus": "<div class = imageBox><img class = image src = img/line_images/16_target_01_01.png </img></div>", "trial_id": "target", "time_elapsed": 443415, "internal_node_id": "0.0-315.0", "key_press": -1, "trial_index": 315}, {"rt": -1, "trial_type": "single-stim", "stimulus": "<div class = imageBox><img class = image src = img/Pmask5.jpg </img></div>", "trial_id": "mask", "time_elapsed": 444817, "internal_node_id": "0.0-316.0", "key_press": -1, "trial_index": 316}, {"rt": -1, "trial_type": "single-stim", "stimulus": "<div class = imageBox><img class = image src = img/line_images/16_mis_01_01.png </img></div>", "trial_id": "probe", "time_elapsed": 446019, "internal_node_id": "0.0-317.0", "key_press": -1, "trial_index": 317}, {"rt": 88, "trial_type": "single-stim", "stimulus": "<div class = centerbox style = text-align:center><p style = font-size:50px>Same or different? </p></div>", "trial_id": "response_line", "time_elapsed": 447109, "response": ["same"], "internal_node_id": "0.0-318.0", "key_press": 49, "trial_index": 318, "congruency": ["congruent"], "correct": true, "alignment": ["misaligned"]}, {"rt": -1, "trial_type": "single-stim", "stimulus": "<div class = imageBox><img class = image src = img/line_images/20_target_01_01.png </img></div>", "trial_id": "target", "time_elapsed": 448311, "internal_node_id": "0.0-319.0", "key_press": -1, "trial_index": 319}, {"rt": -1, "trial_type": "single-stim", "stimulus": "<div class = imageBox><img class = image src = img/Pmask2.jpg </img></div>", "trial_id": "mask", "time_elapsed": 449713, "internal_node_id": "0.0-320.0", "key_press": -1, "trial_index": 320}, {"rt": -1, "trial_type": "single-stim", "stimulus": "<div class = imageBox><img class = image src = img/line_images/20_mis_02_02.png </img></div>", "trial_id": "probe", "time_elapsed": 450915, "internal_node_id": "0.0-321.0", "key_press": -1, "trial_index": 321}, {"rt": 218, "trial_type": "single-stim", "stimulus": "<div class = centerbox style = text-align:center><p style = font-size:50px>Same or different? </p></div>", "trial_id": "response_line", "time_elapsed": 452136, "response": ["different"], "internal_node_id": "0.0-322.0", "key_press": 49, "trial_index": 322, "congruency": ["congruent"], "correct": false, "alignment": ["misaligned"]}, {"rt": -1, "trial_type": "single-stim", "stimulus": "<div class = imageBox><img class = image src = img/line_images/9_target_01_01.png </img></div>", "trial_id": "target", "time_elapsed": 453338, "internal_node_id": "0.0-323.0", "key_press": -1, "trial_index": 323}, {"rt": -1, "trial_type": "single-stim", "stimulus": "<div class = imageBox><img class = image src = img/Pmask4.jpg </img></div>", "trial_id": "mask", "time_elapsed": 454741, "internal_node_id": "0.0-324.0", "key_press": -1, "trial_index": 324}, {"rt": -1, "trial_type": "single-stim", "stimulus": "<div class = imageBox><img class = image src = img/line_images/9_mis_01_01.png </img></div>", "trial_id": "probe", "time_elapsed": 455943, "internal_node_id": "0.0-325.0", "key_press": -1, "trial_index": 325}, {"rt": 61, "trial_type": "single-stim", "stimulus": "<div class = centerbox style = text-align:center><p style = font-size:50px>Same or different? </p></div>", "trial_id": "response_line", "time_elapsed": 457005, "response": ["same"], "internal_node_id": "0.0-326.0", "key_press": 49, "trial_index": 326, "congruency": ["congruent"], "correct": true, "alignment": ["misaligned"]}, {"rt": -1, "trial_type": "single-stim", "stimulus": "<div class = imageBox><img class = image src = img/line_images/10_target_01_01.png </img></div>", "trial_id": "target", "time_elapsed": 458207, "internal_node_id": "0.0-327.0", "key_press": -1, "trial_index": 327}, {"rt": -1, "trial_type": "single-stim", "stimulus": "<div class = imageBox><img class = image src = img/Pmask3.jpg </img></div>", "trial_id": "mask", "time_elapsed": 459605, "internal_node_id": "0.0-328.0", "key_press": -1, "trial_index": 328}, {"rt": -1, "trial_type": "single-stim", "stimulus": "<div class = imageBox><img class = image src = img/line_images/10_al_02_02.png </img></div>", "trial_id": "probe", "time_elapsed": 460807, "internal_node_id": "0.0-329.0", "key_press": -1, "trial_index": 329}, {"rt": 80, "trial_type": "single-stim", "stimulus": "<div class = centerbox style = text-align:center><p style = font-size:50px>Same or different? </p></div>", "trial_id": "response_line", "time_elapsed": 461889, "response": ["different"], "internal_node_id": "0.0-330.0", "key_press": 48, "trial_index": 330, "congruency": ["congruent"], "correct": true, "alignment": ["aligned"]}, {"rt": -1, "trial_type": "single-stim", "stimulus": "<div class = imageBox><img class = image src = img/line_images/7_target_01_01.png </img></div>", "trial_id": "target", "time_elapsed": 463091, "internal_node_id": "0.0-331.0", "key_press": -1, "trial_index": 331}, {"rt": -1, "trial_type": "single-stim", "stimulus": "<div class = imageBox><img class = image src = img/Pmask5.jpg </img></div>", "trial_id": "mask", "time_elapsed": 464493, "internal_node_id": "0.0-332.0", "key_press": -1, "trial_index": 332}, {"rt": -1, "trial_type": "single-stim", "stimulus": "<div class = imageBox><img class = image src = img/line_images/7_mis_02_02.png </img></div>", "trial_id": "probe", "time_elapsed": 465695, "internal_node_id": "0.0-333.0", "key_press": -1, "trial_index": 333}, {"rt": 163, "trial_type": "single-stim", "stimulus": "<div class = centerbox style = text-align:center><p style = font-size:50px>Same or different? </p></div>", "trial_id": "response_line", "time_elapsed": 466859, "response": ["different"], "internal_node_id": "0.0-334.0", "key_press": 48, "trial_index": 334, "congruency": ["congruent"], "correct": true, "alignment": ["misaligned"]}, {"rt": -1, "trial_type": "single-stim", "stimulus": "<div class = imageBox><img class = image src = img/line_images/18_target_01_01.png </img></div>", "trial_id": "target", "time_elapsed": 468061, "internal_node_id": "0.0-335.0", "key_press": -1, "trial_index": 335}, {"rt": -1, "trial_type": "single-stim", "stimulus": "<div class = imageBox><img class = image src = img/Pmask3.jpg </img></div>", "trial_id": "mask", "time_elapsed": 469463, "internal_node_id": "0.0-336.0", "key_press": -1, "trial_index": 336}, {"rt": -1, "trial_type": "single-stim", "stimulus": "<div class = imageBox><img class = image src = img/line_images/18_mis_01_01.png </img></div>", "trial_id": "probe", "time_elapsed": 470665, "internal_node_id": "0.0-337.0", "key_press": -1, "trial_index": 337}, {"rt": 247, "trial_type": "single-stim", "stimulus": "<div class = centerbox style = text-align:center><p style = font-size:50px>Same or different? </p></div>", "trial_id": "response_line", "time_elapsed": 471913, "response": ["same"], "internal_node_id": "0.0-338.0", "key_press": 49, "trial_index": 338, "congruency": ["congruent"], "correct": true, "alignment": ["misaligned"]}, {"rt": -1, "trial_type": "single-stim", "stimulus": "<div class = imageBox><img class = image src = img/line_images/19_target_01_01.png </img></div>", "trial_id": "target", "time_elapsed": 473115, "internal_node_id": "0.0-339.0", "key_press": -1, "trial_index": 339}, {"rt": -1, "trial_type": "single-stim", "stimulus": "<div class = imageBox><img class = image src = img/Pmask4.jpg </img></div>", "trial_id": "mask", "time_elapsed": 474517, "internal_node_id": "0.0-340.0", "key_press": -1, "trial_index": 340}, {"rt": -1, "trial_type": "single-stim", "stimulus": "<div class = imageBox><img class = image src = img/line_images/19_al_02_02.png </img></div>", "trial_id": "probe", "time_elapsed": 475719, "internal_node_id": "0.0-341.0", "key_press": -1, "trial_index": 341}, {"rt": 136, "trial_type": "single-stim", "stimulus": "<div class = centerbox style = text-align:center><p style = font-size:50px>Same or different? </p></div>", "trial_id": "response_line", "time_elapsed": 476857, "response": ["different"], "internal_node_id": "0.0-342.0", "key_press": 48, "trial_index": 342, "congruency": ["congruent"], "correct": true, "alignment": ["aligned"]}, {"rt": -1, "trial_type": "single-stim", "stimulus": "<div class = imageBox><img class = image src = img/line_images/4_target_01_01.png </img></div>", "trial_id": "target", "time_elapsed": 478059, "internal_node_id": "0.0-343.0", "key_press": -1, "trial_index": 343}, {"rt": -1, "trial_type": "single-stim", "stimulus": "<div class = imageBox><img class = image src = img/Pmask2.jpg </img></div>", "trial_id": "mask", "time_elapsed": 479461, "internal_node_id": "0.0-344.0", "key_press": -1, "trial_index": 344}, {"rt": -1, "trial_type": "single-stim", "stimulus": "<div class = imageBox><img class = image src = img/line_images/4_al_02_01.png </img></div>", "trial_id": "probe", "time_elapsed": 480663, "internal_node_id": "0.0-345.0", "key_press": -1, "trial_index": 345}, {"rt": 138, "trial_type": "single-stim", "stimulus": "<div class = centerbox style = text-align:center><p style = font-size:50px>Same or different? </p></div>", "trial_id": "response_line", "time_elapsed": 481803, "response": ["different"], "internal_node_id": "0.0-346.0", "key_press": 48, "trial_index": 346, "congruency": ["incongruent"], "correct": true, "alignment": ["aligned"]}, {"rt": -1, "trial_type": "single-stim", "stimulus": "<div class = imageBox><img class = image src = img/line_images/8_target_01_01.png </img></div>", "trial_id": "target", "time_elapsed": 483005, "internal_node_id": "0.0-347.0", "key_press": -1, "trial_index": 347}, {"rt": -1, "trial_type": "single-stim", "stimulus": "<div class = imageBox><img class = image src = img/Pmask2.jpg </img></div>", "trial_id": "mask", "time_elapsed": 484407, "internal_node_id": "0.0-348.0", "key_press": -1, "trial_index": 348}, {"rt": -1, "trial_type": "single-stim", "stimulus": "<div class = imageBox><img class = image src = img/line_images/8_mis_01_01.png </img></div>", "trial_id": "probe", "time_elapsed": 485609, "internal_node_id": "0.0-349.0", "key_press": -1, "trial_index": 349}, {"rt": 494, "trial_type": "single-stim", "stimulus": "<div class = centerbox style = text-align:center><p style = font-size:50px>Same or different? </p></div>", "trial_id": "response_line", "time_elapsed": 487105, "response": ["same"],