{
    "AutoApprovalTime": "2017-11-22T01:54:06Z",
    "AssignmentId": "3PJUZCGDJ6GZF0JSRKH099F6RTW89X",
    "WorkerId": "A1JAWSGI1SW8BX",
    "answers": {
        "data": [
            {
                "rt": -1,
                "trial_type": "text",
                "internal_node_id": "0.0-0.0",
                "time_elapsed": 16913,
                "key_press": 32,
                "trial_index": 0
            },
            {
                "rt": -1,
                "trial_type": "text",
                "internal_node_id": "0.0-1.0",
                "time_elapsed": 46381,
                "key_press": 32,
                "trial_index": 1
            },
            {
                "rt": -1,
                "trial_type": "single-stim",
                "stimulus": "<div class = imageBox><img class = image src = img/line_images/21_target_01_01.png </img></div>",
                "internal_node_id": "0.0-2.0",
                "time_elapsed": 48595,
                "key_press": -1,
                "trial_index": 2
            },
            {
                "rt": -1,
                "trial_type": "single-stim",
                "stimulus": "<div class = imageBox><img class = image src = img/Pmask4.jpg </img></div>",
                "trial_id": "mask",
                "internal_node_id": "0.0-3.0",
                "time_elapsed": 50005,
                "key_press": -1,
                "trial_index": 3
            },
            {
                "rt": -1,
                "trial_type": "single-stim",
                "stimulus": "<div class = imageBox><img class = image src = img/line_images/21_mis_01_02.png </img></div>",
                "internal_node_id": "0.0-4.0",
                "time_elapsed": 51213,
                "key_press": -1,
                "trial_index": 4
            },
            {
                "rt": -1,
                "trial_type": "single-stim",
                "stimulus": "<div class = centerbox style = text-align:center><p style = font-size:40px>Same or different? </p></div>",
                "internal_node_id": "0.0-5.0",
                "time_elapsed": 71533,
                "key_press": 49,
                "trial_index": 5
            },
            {
                "rt": -1,
                "trial_type": "single-stim",
                "stimulus": "<div class = imageBox><img class = image src = img/line_images/23_target_01_01.png </img></div>",
                "internal_node_id": "0.0-6.0",
                "time_elapsed": 72739,
                "key_press": -1,
                "trial_index": 6
            },
            {
                "rt": -1,
                "trial_type": "single-stim",
                "stimulus": "<div class = imageBox><img class = image src = img/Pmask1.jpg </img></div>",
                "trial_id": "mask",
                "internal_node_id": "0.0-7.0",
                "time_elapsed": 74150,
                "key_press": -1,
                "trial_index": 7
            },
            {
                "rt": -1,
                "trial_type": "single-stim",
                "stimulus": "<div class = imageBox><img class = image src = img/line_images/23_al_01_01.png </img></div>",
                "internal_node_id": "0.0-8.0",
                "time_elapsed": 75359,
                "key_press": -1,
                "trial_index": 8
            },
            {
                "rt": -1,
                "trial_type": "single-stim",
                "stimulus": "<div class = centerbox style = text-align:center><p style = font-size:40px>Same or different? </p></div>",
                "internal_node_id": "0.0-9.0",
                "time_elapsed": 83818,
                "key_press": 48,
                "trial_index": 9
            },
            {
                "rt": -1,
                "trial_type": "single-stim",
                "stimulus": "<div class = imageBox><img class = image src = img/line_images/21_target_01_01.png </img></div>",
                "internal_node_id": "0.0-10.0",
                "time_elapsed": 85026,
                "key_press": -1,
                "trial_index": 10
            },
            {
                "rt": -1,
                "trial_type": "single-stim",
                "stimulus": "<div class = imageBox><img class = image src = img/Pmask2.jpg </img></div>",
                "trial_id": "mask",
                "internal_node_id": "0.0-11.0",
                "time_elapsed": 86431,
                "key_press": -1,
                "trial_index": 11
            },
            {
                "rt": -1,
                "trial_type": "single-stim",
                "stimulus": "<div class = imageBox><img class = image src = img/line_images/21_al_01_02.png </img></div>",
                "internal_node_id": "0.0-12.0",
                "time_elapsed": 87637,
                "key_press": -1,
                "trial_index": 12
            },
            {
                "rt": -1,
                "trial_type": "single-stim",
                "stimulus": "<div class = centerbox style = text-align:center><p style = font-size:40px>Same or different? </p></div>",
                "internal_node_id": "0.0-13.0",
                "time_elapsed": 89857,
                "key_press": 48,
                "trial_index": 13
            },
            {
                "rt": -1,
                "trial_type": "single-stim",
                "stimulus": "<div class = imageBox><img class = image src = img/line_images/22_target_01_01.png </img></div>",
                "internal_node_id": "0.0-14.0",
                "time_elapsed": 91062,
                "key_press": -1,
                "trial_index": 14
            },
            {
                "rt": -1,
                "trial_type": "single-stim",
                "stimulus": "<div class = imageBox><img class = image src = img/Pmask1.jpg </img></div>",
                "trial_id": "mask",
                "internal_node_id": "0.0-15.0",
                "time_elapsed": 92472,
                "key_press": -1,
                "trial_index": 15
            },
            {
                "rt": -1,
                "trial_type": "single-stim",
                "stimulus": "<div class = imageBox><img class = image src = img/line_images/22_mis_02_01.png </img></div>",
                "internal_node_id": "0.0-16.0",
                "time_elapsed": 93679,
                "key_press": -1,
                "trial_index": 16
            },
            {
                "rt": -1,
                "trial_type": "single-stim",
                "stimulus": "<div class = centerbox style = text-align:center><p style = font-size:40px>Same or different? </p></div>",
                "internal_node_id": "0.0-17.0",
                "time_elapsed": 95481,
                "key_press": 49,
                "trial_index": 17
            },
            {
                "rt": -1,
                "trial_type": "single-stim",
                "stimulus": "<div class = imageBox><img class = image src = img/line_images/22_target_01_01.png </img></div>",
                "internal_node_id": "0.0-18.0",
                "time_elapsed": 96686,
                "key_press": -1,
                "trial_index": 18
            },
            {
                "rt": -1,
                "trial_type": "single-stim",
                "stimulus": "<div class = imageBox><img class = image src = img/Pmask4.jpg </img></div>",
                "trial_id": "mask",
                "internal_node_id": "0.0-19.0",
                "time_elapsed": 98096,
                "key_press": -1,
                "trial_index": 19
            },
            {
                "rt": -1,
                "trial_type": "single-stim",
                "stimulus": "<div class = imageBox><img class = image src = img/line_images/22_mis_01_02.png </img></div>",
                "internal_node_id": "0.0-20.0",
                "time_elapsed": 99303,
                "key_press": -1,
                "trial_index": 20
            },
            {
                "rt": -1,
                "trial_type": "single-stim",
                "stimulus": "<div class = centerbox style = text-align:center><p style = font-size:40px>Same or different? </p></div>",
                "internal_node_id": "0.0-21.0",
                "time_elapsed": 100485,
                "key_press": 49,
                "trial_index": 21
            },
            {
                "rt": -1,
                "trial_type": "single-stim",
                "stimulus": "<div class = imageBox><img class = image src = img/line_images/21_target_01_01.png </img></div>",
                "internal_node_id": "0.0-22.0",
                "time_elapsed": 101694,
                "key_press": -1,
                "trial_index": 22
            },
            {
                "rt": -1,
                "trial_type": "single-stim",
                "stimulus": "<div class = imageBox><img class = image src = img/Pmask5.jpg </img></div>",
                "trial_id": "mask",
                "internal_node_id": "0.0-23.0",
                "time_elapsed": 103105,
                "key_press": -1,
                "trial_index": 23
            },
            {
                "rt": -1,
                "trial_type": "single-stim",
                "stimulus": "<div class = imageBox><img class = image src = img/line_images/21_al_02_02.png </img></div>",
                "internal_node_id": "0.0-24.0",
                "time_elapsed": 104312,
                "key_press": -1,
                "trial_index": 24
            },
            {
                "rt": -1,
                "trial_type": "single-stim",
                "stimulus": "<div class = centerbox style = text-align:center><p style = font-size:40px>Same or different? </p></div>",
                "internal_node_id": "0.0-25.0",
                "time_elapsed": 105853,
                "key_press": 48,
                "trial_index": 25
            },
            {
                "rt": -1,
                "trial_type": "single-stim",
                "stimulus": "<div class = imageBox><img class = image src = img/line_images/24_target_01_01.png </img></div>",
                "internal_node_id": "0.0-26.0",
                "time_elapsed": 107063,
                "key_press": -1,
                "trial_index": 26
            },
            {
                "rt": -1,
                "trial_type": "single-stim",
                "stimulus": "<div class = imageBox><img class = image src = img/Pmask3.jpg </img></div>",
                "trial_id": "mask",
                "internal_node_id": "0.0-27.0",
                "time_elapsed": 108473,
                "key_press": -1,
                "trial_index": 27
            },
            {
                "rt": -1,
                "trial_type": "single-stim",
                "stimulus": "<div class = imageBox><img class = image src = img/line_images/24_al_01_02.png </img></div>",
                "internal_node_id": "0.0-28.0",
                "time_elapsed": 109680,
                "key_press": -1,
                "trial_index": 28
            },
            {
                "rt": -1,
                "trial_type": "single-stim",
                "stimulus": "<div class = centerbox style = text-align:center><p style = font-size:40px>Same or different? </p></div>",
                "internal_node_id": "0.0-29.0",
                "time_elapsed": 111144,
                "key_press": 49,
                "trial_index": 29
            },
            {
                "rt": -1,
                "trial_type": "single-stim",
                "stimulus": "<div class = imageBox><img class = image src = img/line_images/23_target_01_01.png </img></div>",
                "internal_node_id": "0.0-30.0",
                "time_elapsed": 112350,
                "key_press": -1,
                "trial_index": 30
            },
            {
                "rt": -1,
                "trial_type": "single-stim",
                "stimulus": "<div class = imageBox><img class = image src = img/Pmask5.jpg </img></div>",
                "trial_id": "mask",
                "internal_node_id": "0.0-31.0",
                "time_elapsed": 113761,
                "key_press": -1,
                "trial_index": 31
            },
            {
                "rt": -1,
                "trial_type": "single-stim",
                "stimulus": "<div class = imageBox><img class = image src = img/line_images/23_mis_02_01.png </img></div>",
                "internal_node_id": "0.0-32.0",
                "time_elapsed": 114968,
                "key_press": -1,
                "trial_index": 32
            },
            {
                "rt": -1,
                "trial_type": "single-stim",
                "stimulus": "<div class = centerbox style = text-align:center><p style = font-size:40px>Same or different? </p></div>",
                "internal_node_id": "0.0-33.0",
                "time_elapsed": 116723,
                "key_press": 49,
                "trial_index": 33
            },
            {
                "rt": -1,
                "trial_type": "text",
                "internal_node_id": "0.0-34.0",
                "time_elapsed": 214486,
                "key_press": 32,
                "trial_index": 34
            },
            {
                "rt": -1,
                "trial_type": "single-stim",
                "stimulus": "<div class = imageBox><img class = image src = img/line_images/10_target_01_01.png </img></div>",
                "trial_id": "target",
                "internal_node_id": "0.0-35.0",
                "time_elapsed": 216692,
                "key_press": -1,
                "trial_index": 35
            },
            {
                "rt": -1,
                "trial_type": "single-stim",
                "stimulus": "<div class = imageBox><img class = image src = img/Pmask4.jpg </img></div>",
                "trial_id": "mask",
                "internal_node_id": "0.0-36.0",
                "time_elapsed": 218103,
                "key_press": -1,
                "trial_index": 36
            },
            {
                "rt": -1,
                "trial_type": "single-stim",
                "stimulus": "<div class = imageBox><img class = image src = img/line_images/10_mis_02_01.png </img></div>",
                "trial_id": "probe",
                "internal_node_id": "0.0-37.0",
                "time_elapsed": 219310,
                "key_press": -1,
                "trial_index": 37
            },
            {
                "rt": 7,
                "trial_type": "single-stim",
                "stimulus": "<div class = centerbox style = text-align:center><p style = font-size:40px>Same or different? </p></div>",
                "trial_id": "response_line",
                "internal_node_id": "0.0-38.0",
                "correct": false,
                "time_elapsed": 220322,
                "key_press": 49,
                "alignment": [
                    "misaligned"
                ],
                "congruency": [
                    "incongruent"
                ],
                "response": [
                    "different"
                ],
                "trial_index": 38
            },
            {
                "rt": -1,
                "trial_type": "single-stim",
                "stimulus": "<div class = imageBox><img class = image src = img/line_images/12_target_01_01.png </img></div>",
                "trial_id": "target",
                "internal_node_id": "0.0-39.0",
                "time_elapsed": 221527,
                "key_press": -1,
                "trial_index": 39
            },
            {
                "rt": -1,
                "trial_type": "single-stim",
                "stimulus": "<div class = imageBox><img class = image src = img/Pmask3.jpg </img></div>",
                "trial_id": "mask",
                "internal_node_id": "0.0-40.0",
                "time_elapsed": 222937,
                "key_press": -1,
                "trial_index": 40
            },
            {
                "rt": -1,
                "trial_type": "single-stim",
                "stimulus": "<div class = imageBox><img class = image src = img/line_images/12_mis_01_02.png </img></div>",
                "trial_id": "probe",
                "internal_node_id": "0.0-41.0",
                "time_elapsed": 224145,
                "key_press": -1,
                "trial_index": 41
            },
            {
                "rt": 1105,
                "trial_type": "single-stim",
                "stimulus": "<div class = centerbox style = text-align:center><p style = font-size:40px>Same or different? </p></div>",
                "trial_id": "response_line",
                "internal_node_id": "0.0-42.0",
                "correct": true,
                "time_elapsed": 226254,
                "key_press": 49,
                "alignment": [
                    "misaligned"
                ],
                "congruency": [
                    "incongruent"
                ],
                "response": [
                    "same"
                ],
                "trial_index": 42
            },
            {
                "rt": -1,
                "trial_type": "single-stim",
                "stimulus": "<div class = imageBox><img class = image src = img/line_images/12_target_01_01.png </img></div>",
                "trial_id": "target",
                "internal_node_id": "0.0-43.0",
                "time_elapsed": 227459,
                "key_press": -1,
                "trial_index": 43
            },
            {
                "rt": -1,
                "trial_type": "single-stim",
                "stimulus": "<div class = imageBox><img class = image src = img/Pmask1.jpg </img></div>",
                "trial_id": "mask",
                "internal_node_id": "0.0-44.0",
                "time_elapsed": 228869,
                "key_press": -1,
                "trial_index": 44
            },
            {
                "rt": -1,
                "trial_type": "single-stim",
                "stimulus": "<div class = imageBox><img class = image src = img/line_images/12_al_01_02.png </img></div>",
                "trial_id": "probe",
                "internal_node_id": "0.0-45.0",
                "time_elapsed": 230077,
                "key_press": -1,
                "trial_index": 45
            },
            {
                "rt": 288,
                "trial_type": "single-stim",
                "stimulus": "<div class = centerbox style = text-align:center><p style = font-size:40px>Same or different? </p></div>",
                "trial_id": "response_line",
                "internal_node_id": "0.0-46.0",
                "correct": true,
                "time_elapsed": 231369,
                "key_press": 49,
                "alignment": [
                    "aligned"
                ],
                "congruency": [
                    "incongruent"
                ],
                "response": [
                    "same"
                ],
                "trial_index": 46
            },
            {
                "rt": -1,
                "trial_type": "single-stim",
                "stimulus": "<div class = imageBox><img class = image src = img/line_images/9_target_01_01.png </img></div>",
                "trial_id": "target",
                "internal_node_id": "0.0-47.0",
                "time_elapsed": 232580,
                "key_press": -1,
                "trial_index": 47
            },
            {
                "rt": -1,
                "trial_type": "single-stim",
                "stimulus": "<div class = imageBox><img class = image src = img/Pmask1.jpg </img></div>",
                "trial_id": "mask",
                "internal_node_id": "0.0-48.0",
                "time_elapsed": 233986,
                "key_press": -1,
                "trial_index": 48
            },
            {
                "rt": -1,
                "trial_type": "single-stim",
                "stimulus": "<div class = imageBox><img class = image src = img/line_images/9_al_01_02.png </img></div>",
                "trial_id": "probe",
                "internal_node_id": "0.0-49.0",
                "time_elapsed": 235198,
                "key_press": -1,
                "trial_index": 49
            },
            {
                "rt": 33,
                "trial_type": "single-stim",
                "stimulus": "<div class = centerbox style = text-align:center><p style = font-size:40px>Same or different? </p></div>",
                "trial_id": "response_line",
                "internal_node_id": "0.0-50.0",
                "correct": true,
                "time_elapsed": 236233,
                "key_press": 49,
                "alignment": [
                    "aligned"
                ],
                "congruency": [
                    "incongruent"
                ],
                "response": [
                    "same"
                ],
                "trial_index": 50
            },
            {
                "rt": -1,
                "trial_type": "single-stim",
                "stimulus": "<div class = imageBox><img class = image src = img/line_images/13_target_01_01.png </img></div>",
                "trial_id": "target",
                "internal_node_id": "0.0-51.0",
                "time_elapsed": 237441,
                "key_press": -1,
                "trial_index": 51
            },
            {
                "rt": -1,
                "trial_type": "single-stim",
                "stimulus": "<div class = imageBox><img class = image src = img/Pmask4.jpg </img></div>",
                "trial_id": "mask",
                "internal_node_id": "0.0-52.0",
                "time_elapsed": 238851,
                "key_press": -1,
                "trial_index": 52
            },
            {
                "rt": -1,
                "trial_type": "single-stim",
                "stimulus": "<div class = imageBox><img class = image src = img/line_images/13_mis_02_02.png </img></div>",
                "trial_id": "probe",
                "internal_node_id": "0.0-53.0",
                "time_elapsed": 240059,
                "key_press": -1,
                "trial_index": 53
            },
            {
                "rt": 853,
                "trial_type": "single-stim",
                "stimulus": "<div class = centerbox style = text-align:center><p style = font-size:40px>Same or different? </p></div>",
                "trial_id": "response_line",
                "internal_node_id": "0.0-54.0",
                "correct": true,
                "time_elapsed": 241916,
                "key_press": 48,
                "alignment": [
                    "misaligned"
                ],
                "congruency": [
                    "congruent"
                ],
                "response": [
                    "different"
                ],
                "trial_index": 54
            },
            {
                "rt": -1,
                "trial_type": "single-stim",
                "stimulus": "<div class = imageBox><img class = image src = img/line_images/6_target_01_01.png </img></div>",
                "trial_id": "target",
                "internal_node_id": "0.0-55.0",
                "time_elapsed": 243123,
                "key_press": -1,
                "trial_index": 55
            },
            {
                "rt": -1,
                "trial_type": "single-stim",
                "stimulus": "<div class = imageBox><img class = image src = img/Pmask4.jpg </img></div>",
                "trial_id": "mask",
                "internal_node_id": "0.0-56.0",
                "time_elapsed": 244534,
                "key_press": -1,
                "trial_index": 56
            },
            {
                "rt": -1,
                "trial_type": "single-stim",
                "stimulus": "<div class = imageBox><img class = image src = img/line_images/6_al_01_01.png </img></div>",
                "trial_id": "probe",
                "internal_node_id": "0.0-57.0",
                "time_elapsed": 245741,
                "key_press": -1,
                "trial_index": 57
            },
            {
                "rt": 290,
                "trial_type": "single-stim",
                "stimulus": "<div class = centerbox style = text-align:center><p style = font-size:40px>Same or different? </p></div>",
                "trial_id": "response_line",
                "internal_node_id": "0.0-58.0",
                "correct": true,
                "time_elapsed": 247036,
                "key_press": 49,
                "alignment": [
                    "aligned"
                ],
                "congruency": [
                    "congruent"
                ],
                "response": [
                    "same"
                ],
                "trial_index": 58
            },
            {
                "rt": -1,
                "trial_type": "single-stim",
                "stimulus": "<div class = imageBox><img class = image src = img/line_images/17_target_01_01.png </img></div>",
                "trial_id": "target",
                "internal_node_id": "0.0-59.0",
                "time_elapsed": 248242,
                "key_press": -1,
                "trial_index": 59
            },
            {
                "rt": -1,
                "trial_type": "single-stim",
                "stimulus": "<div class = imageBox><img class = image src = img/Pmask5.jpg </img></div>",
                "trial_id": "mask",
                "internal_node_id": "0.0-60.0",
                "time_elapsed": 249653,
                "key_press": -1,
                "trial_index": 60
            },
            {
                "rt": -1,
                "trial_type": "single-stim",
                "stimulus": "<div class = imageBox><img class = image src = img/line_images/17_mis_02_02.png </img></div>",
                "trial_id": "probe",
                "internal_node_id": "0.0-61.0",
                "time_elapsed": 250860,
                "key_press": -1,
                "trial_index": 61
            },
            {
                "rt": 1811,
                "trial_type": "single-stim",
                "stimulus": "<div class = centerbox style = text-align:center><p style = font-size:40px>Same or different? </p></div>",
                "trial_id": "response_line",
                "internal_node_id": "0.0-62.0",
                "correct": false,
                "time_elapsed": 253676,
                "key_press": 49,
                "alignment": [
                    "misaligned"
                ],
                "congruency": [
                    "congruent"
                ],
                "response": [
                    "different"
                ],
                "trial_index": 62
            },
            {
                "rt": -1,
                "trial_type": "single-stim",
                "stimulus": "<div class = imageBox><img class = image src = img/line_images/13_target_01_01.png </img></div>",
                "trial_id": "target",
                "internal_node_id": "0.0-63.0",
                "time_elapsed": 254882,
                "key_press": -1,
                "trial_index": 63
            },
            {
                "rt": -1,
                "trial_type": "single-stim",
                "stimulus": "<div class = imageBox><img class = image src = img/Pmask5.jpg </img></div>",
                "trial_id": "mask",
                "internal_node_id": "0.0-64.0",
                "time_elapsed": 256293,
                "key_press": -1,
                "trial_index": 64
            },
            {
                "rt": -1,
                "trial_type": "single-stim",
                "stimulus": "<div class = imageBox><img class = image src = img/line_images/13_al_02_01.png </img></div>",
                "trial_id": "probe",
                "internal_node_id": "0.0-65.0",
                "time_elapsed": 257499,
                "key_press": -1,
                "trial_index": 65
            },
            {
                "rt": 825,
                "trial_type": "single-stim",
                "stimulus": "<div class = centerbox style = text-align:center><p style = font-size:40px>Same or different? </p></div>",
                "trial_id": "response_line",
                "internal_node_id": "0.0-66.0",
                "correct": false,
                "time_elapsed": 259331,
                "key_press": 49,
                "alignment": [
                    "aligned"
                ],
                "congruency": [
                    "incongruent"
                ],
                "response": [
                    "different"
                ],
                "trial_index": 66
            },
            {
                "rt": -1,
                "trial_type": "single-stim",
                "stimulus": "<div class = imageBox><img class = image src = img/line_images/12_target_01_01.png </img></div>",
                "trial_id": "target",
                "internal_node_id": "0.0-67.0",
                "time_elapsed": 260541,
                "key_press": -1,
                "trial_index": 67
            },
            {
                "rt": -1,
                "trial_type": "single-stim",
                "stimulus": "<div class = imageBox><img class = image src = img/Pmask4.jpg </img></div>",
                "trial_id": "mask",
                "internal_node_id": "0.0-68.0",
                "time_elapsed": 261951,
                "key_press": -1,
                "trial_index": 68
            },
            {
                "rt": -1,
                "trial_type": "single-stim",
                "stimulus": "<div class = imageBox><img class = image src = img/line_images/12_al_02_02.png </img></div>",
                "trial_id": "probe",
                "internal_node_id": "0.0-69.0",
                "time_elapsed": 263159,
                "key_press": -1,
                "trial_index": 69
            },
            {
                "rt": 160,
                "trial_type": "single-stim",
                "stimulus": "<div class = centerbox style = text-align:center><p style = font-size:40px>Same or different? </p></div>",
                "trial_id": "response_line",
                "internal_node_id": "0.0-70.0",
                "correct": true,
                "time_elapsed": 264323,
                "key_press": 48,
                "alignment": [
                    "aligned"
                ],
                "congruency": [
                    "congruent"
                ],
                "response": [
                    "different"
                ],
                "trial_index": 70
            },
            {
                "rt": -1,
                "trial_type": "single-stim",
                "stimulus": "<div class = imageBox><img class = image src = img/line_images/12_target_01_01.png </img></div>",
                "trial_id": "target",
                "internal_node_id": "0.0-71.0",
                "time_elapsed": 265531,
                "key_press": -1,
                "trial_index": 71
            },
            {
                "rt": -1,
                "trial_type": "single-stim",
                "stimulus": "<div class = imageBox><img class = image src = img/Pmask1.jpg </img></div>",
                "trial_id": "mask",
                "internal_node_id": "0.0-72.0",
                "time_elapsed": 266942,
                "key_press": -1,
                "trial_index": 72
            },
            {
                "rt": -1,
                "trial_type": "single-stim",
                "stimulus": "<div class = imageBox><img class = image src = img/line_images/12_al_01_01.png </img></div>",
                "trial_id": "probe",
                "internal_node_id": "0.0-73.0",
                "time_elapsed": 268150,
                "key_press": -1,
                "trial_index": 73
            },
            {
                "rt": 904,
                "trial_type": "single-stim",
                "stimulus": "<div class = centerbox style = text-align:center><p style = font-size:40px>Same or different? </p></div>",
                "trial_id": "response_line",
                "internal_node_id": "0.0-74.0",
                "correct": true,
                "time_elapsed": 270057,
                "key_press": 49,
                "alignment": [
                    "aligned"
                ],
                "congruency": [
                    "congruent"
                ],
                "response": [
                    "same"
                ],
                "trial_index": 74
            },
            {
                "rt": -1,
                "trial_type": "single-stim",
                "stimulus": "<div class = imageBox><img class = image src = img/line_images/19_target_01_01.png </img></div>",
                "trial_id": "target",
                "internal_node_id": "0.0-75.0",
                "time_elapsed": 271266,
                "key_press": -1,
                "trial_index": 75
            },
            {
                "rt": -1,
                "trial_type": "single-stim",
                "stimulus": "<div class = imageBox><img class = image src = img/Pmask5.jpg </img></div>",
                "trial_id": "mask",
                "internal_node_id": "0.0-76.0",
                "time_elapsed": 272677,
                "key_press": -1,
                "trial_index": 76
            },
            {
                "rt": -1,
                "trial_type": "single-stim",
                "stimulus": "<div class = imageBox><img class = image src = img/line_images/19_al_02_02.png </img></div>",
                "trial_id": "probe",
                "internal_node_id": "0.0-77.0",
                "time_elapsed": 273884,
                "key_press": -1,
                "trial_index": 77
            },
            {
                "rt": 53,
                "trial_type": "single-stim",
                "stimulus": "<div class = centerbox style = text-align:center><p style = font-size:40px>Same or different? </p></div>",
                "trial_id": "response_line",
                "internal_node_id": "0.0-78.0",
                "correct": true,
                "time_elapsed": 274941,
                "key_press": 48,
                "alignment": [
                    "aligned"
                ],
                "congruency": [
                    "congruent"
                ],
                "response": [
                    "different"
                ],
                "trial_index": 78
            },
            {
                "rt": -1,
                "trial_type": "single-stim",
                "stimulus": "<div class = imageBox><img class = image src = img/line_images/9_target_01_01.png </img></div>",
                "trial_id": "target",
                "internal_node_id": "0.0-79.0",
                "time_elapsed": 276153,
                "key_press": -1,
                "trial_index": 79
            },
            {
                "rt": -1,
                "trial_type": "single-stim",
                "stimulus": "<div class = imageBox><img class = image src = img/Pmask2.jpg </img></div>",
                "trial_id": "mask",
                "internal_node_id": "0.0-80.0",
                "time_elapsed": 277563,
                "key_press": -1,
                "trial_index": 80
            },
            {
                "rt": -1,
                "trial_type": "single-stim",
                "stimulus": "<div class = imageBox><img class = image src = img/line_images/9_mis_01_01.png </img></div>",
                "trial_id": "probe",
                "internal_node_id": "0.0-81.0",
                "time_elapsed": 278771,
                "key_press": -1,
                "trial_index": 81
            },
            {
                "rt": 417,
                "trial_type": "single-stim",
                "stimulus": "<div class = centerbox style = text-align:center><p style = font-size:40px>Same or different? </p></div>",
                "trial_id": "response_line",
                "internal_node_id": "0.0-82.0",
                "correct": true,
                "time_elapsed": 280192,
                "key_press": 49,
                "alignment": [
                    "misaligned"
                ],
                "congruency": [
                    "congruent"
                ],
                "response": [
                    "same"
                ],
                "trial_index": 82
            },
            {
                "rt": -1,
                "trial_type": "single-stim",
                "stimulus": "<div class = imageBox><img class = image src = img/line_images/14_target_01_01.png </img></div>",
                "trial_id": "target",
                "internal_node_id": "0.0-83.0",
                "time_elapsed": 281400,
                "key_press": -1,
                "trial_index": 83
            },
            {
                "rt": -1,
                "trial_type": "single-stim",
                "stimulus": "<div class = imageBox><img class = image src = img/Pmask3.jpg </img></div>",
                "trial_id": "mask",
                "internal_node_id": "0.0-84.0",
                "time_elapsed": 282810,
                "key_press": -1,
                "trial_index": 84
            },
            {
                "rt": -1,
                "trial_type": "single-stim",
                "stimulus": "<div class = imageBox><img class = image src = img/line_images/14_mis_02_01.png </img></div>",
                "trial_id": "probe",
                "internal_node_id": "0.0-85.0",
                "time_elapsed": 284017,
                "key_press": -1,
                "trial_index": 85
            },
            {
                "rt": 96,
                "trial_type": "single-stim",
                "stimulus": "<div class = centerbox style = text-align:center><p style = font-size:40px>Same or different? </p></div>",
                "trial_id": "response_line",
                "internal_node_id": "0.0-86.0",
                "correct": true,
                "time_elapsed": 285118,
                "key_press": 48,
                "alignment": [
                    "misaligned"
                ],
                "congruency": [
                    "incongruent"
                ],
                "response": [
                    "different"
                ],
                "trial_index": 86
            },
            {
                "rt": -1,
                "trial_type": "single-stim",
                "stimulus": "<div class = imageBox><img class = image src = img/line_images/7_target_01_01.png </img></div>",
                "trial_id": "target",
                "internal_node_id": "0.0-87.0",
                "time_elapsed": 286328,
                "key_press": -1,
                "trial_index": 87
            },
            {
                "rt": -1,
                "trial_type": "single-stim",
                "stimulus": "<div class = imageBox><img class = image src = img/Pmask2.jpg </img></div>",
                "trial_id": "mask",
                "internal_node_id": "0.0-88.0",
                "time_elapsed": 287738,
                "key_press": -1,
                "trial_index": 88
            },
            {
                "rt": -1,
                "trial_type": "single-stim",
                "stimulus": "<div class = imageBox><img class = image src = img/line_images/7_mis_02_01.png </img></div>",
                "trial_id": "probe",
                "internal_node_id": "0.0-89.0",
                "time_elapsed": 288945,
                "key_press": -1,
                "trial_index": 89
            },
            {
                "rt": 206,
                "trial_type": "single-stim",
                "stimulus": "<div class = centerbox style = text-align:center><p style = font-size:40px>Same or different? </p></div>",
                "trial_id": "response_line",
                "internal_node_id": "0.0-90.0",
                "correct": false,
                "time_elapsed": 290156,
                "key_press": 49,
                "alignment": [
                    "misaligned"
                ],
                "congruency": [
                    "incongruent"
                ],
                "response": [
                    "different"
                ],
                "trial_index": 90
            },
            {
                "rt": -1,
                "trial_type": "single-stim",
                "stimulus": "<div class = imageBox><img class = image src = img/line_images/14_target_01_01.png </img></div>",
                "trial_id": "target",
                "internal_node_id": "0.0-91.0",
                "time_elapsed": 291365,
                "key_press": -1,
                "trial_index": 91
            },
            {
                "rt": -1,
                "trial_type": "single-stim",
                "stimulus": "<div class = imageBox><img class = image src = img/Pmask4.jpg </img></div>",
                "trial_id": "mask",
                "internal_node_id": "0.0-92.0",
                "time_elapsed": 292775,
                "key_press": -1,
                "trial_index": 92
            },
            {
                "rt": -1,
                "trial_type": "single-stim",
                "stimulus": "<div class = imageBox><img class = image src = img/line_images/14_al_01_02.png </img></div>",
                "trial_id": "probe",
                "internal_node_id": "0.0-93.0",
                "time_elapsed": 293983,
                "key_press": -1,
                "trial_index": 93
            },
            {
                "rt": 118,
                "trial_type": "single-stim",
                "stimulus": "<div class = centerbox style = text-align:center><p style = font-size:40px>Same or different? </p></div>",
                "trial_id": "response_line",
                "internal_node_id": "0.0-94.0",
                "correct": true,
                "time_elapsed": 295105,
                "key_press": 49,
                "alignment": [
                    "aligned"
                ],
                "congruency": [
                    "incongruent"
                ],
                "response": [
                    "same"
                ],
                "trial_index": 94
            },
            {
                "rt": -1,
                "trial_type": "single-stim",
                "stimulus": "<div class = imageBox><img class = image src = img/line_images/16_target_01_01.png </img></div>",
                "trial_id": "target",
                "internal_node_id": "0.0-95.0",
                "time_elapsed": 296316,
                "key_press": -1,
                "trial_index": 95
            },
            {
                "rt": -1,
                "trial_type": "single-stim",
                "stimulus": "<div class = imageBox><img class = image src = img/Pmask2.jpg </img></div>",
                "trial_id": "mask",
                "internal_node_id": "0.0-96.0",
                "time_elapsed": 297726,
                "key_press": -1,
                "trial_index": 96
            },
            {
                "rt": -1,
                "trial_type": "single-stim",
                "stimulus": "<div class = imageBox><img class = image src = img/line_images/16_mis_02_01.png </img></div>",
                "trial_id": "probe",
                "internal_node_id": "0.0-97.0",
                "time_elapsed": 298933,
                "key_press": -1,
                "trial_index": 97
            },
            {
                "rt": 625,
                "trial_type": "single-stim",
                "stimulus": "<div class = centerbox style = text-align:center><p style = font-size:40px>Same or different? </p></div>",
                "trial_id": "response_line",
                "internal_node_id": "0.0-98.0",
                "correct": true,
                "time_elapsed": 300563,
                "key_press": 48,
                "alignment": [
                    "misaligned"
                ],
                "congruency": [
                    "incongruent"
                ],
                "response": [
                    "different"
                ],
                "trial_index": 98
            },
            {
                "rt": -1,
                "trial_type": "single-stim",
                "stimulus": "<div class = imageBox><img class = image src = img/line_images/20_target_01_01.png </img></div>",
                "trial_id": "target",
                "internal_node_id": "0.0-99.0",
                "time_elapsed": 301771,
                "key_press": -1,
                "trial_index": 99
            },
            {
                "rt": -1,
                "trial_type": "single-stim",
                "stimulus": "<div class = imageBox><img class = image src = img/Pmask1.jpg </img></div>",
                "trial_id": "mask",
                "internal_node_id": "0.0-100.0",
                "time_elapsed": 303182,
                "key_press": -1,
                "trial_index": 100
            },
            {
                "rt": -1,
                "trial_type": "single-stim",
                "stimulus": "<div class = imageBox><img class = image src = img/line_images/20_mis_02_01.png </img></div>",
                "trial_id": "probe",
                "internal_node_id": "0.0-101.0",
                "time_elapsed": 304389,
                "key_press": -1,
                "trial_index": 101
            },
            {
                "rt": 13,
                "trial_type": "single-stim",
                "stimulus": "<div class = centerbox style = text-align:center><p style = font-size:40px>Same or different? </p></div>",
                "trial_id": "response_line",
                "internal_node_id": "0.0-102.0",
                "correct": false,
                "time_elapsed": 305406,
                "key_press": 49,
                "alignment": [
                    "misaligned"
                ],
                "congruency": [
                    "incongruent"
                ],
                "response": [
                    "different"
                ],
                "trial_index": 102
            },
            {
                "rt": -1,
                "trial_type": "single-stim",
                "stimulus": "<div class = imageBox><img class = image src = img/line_images/7_target_01_01.png </img></div>",
                "trial_id": "target",
                "internal_node_id": "0.0-103.0",
                "time_elapsed": 306612,
                "key_press": -1,
                "trial_index": 103
            },
            {
                "rt": -1,
                "trial_type": "single-stim",
                "stimulus": "<div class = imageBox><img class = image src = img/Pmask5.jpg </img></div>",
                "trial_id": "mask",
                "internal_node_id": "0.0-104.0",
                "time_elapsed": 308022,
                "key_press": -1,
                "trial_index": 104
            },
            {
                "rt": -1,
                "trial_type": "single-stim",
                "stimulus": "<div class = imageBox><img class = image src = img/line_images/7_al_02_02.png </img></div>",
                "trial_id": "probe",
                "internal_node_id": "0.0-105.0",
                "time_elapsed": 309229,
                "key_press": -1,
                "trial_index": 105
            },
            {
                "rt": 631,
                "trial_type": "single-stim",
                "stimulus": "<div class = centerbox style = text-align:center><p style = font-size:40px>Same or different? </p></div>",
                "trial_id": "response_line",
                "internal_node_id": "0.0-106.0",
                "correct": true,
                "time_elapsed": 310867,
                "key_press": 48,
                "alignment": [
                    "aligned"
                ],
                "congruency": [
                    "congruent"
                ],
                "response": [
                    "different"
                ],
                "trial_index": 106
            },
            {
                "rt": -1,
                "trial_type": "single-stim",
                "stimulus": "<div class = imageBox><img class = image src = img/line_images/10_target_01_01.png </img></div>",
                "trial_id": "target",
                "internal_node_id": "0.0-107.0",
                "time_elapsed": 312073,
                "key_press": -1,
                "trial_index": 107
            },
            {
                "rt": -1,
                "trial_type": "single-stim",
                "stimulus": "<div class = imageBox><img class = image src = img/Pmask3.jpg </img></div>",
                "trial_id": "mask",
                "internal_node_id": "0.0-108.0",
                "time_elapsed": 313484,
                "key_press": -1,
                "trial_index": 108
            },
            {
                "rt": -1,
                "trial_type": "single-stim",
                "stimulus": "<div class = imageBox><img class = image src = img/line_images/10_mis_01_02.png </img></div>",
                "trial_id": "probe",
                "internal_node_id": "0.0-109.0",
                "time_elapsed": 314691,
                "key_press": -1,
                "trial_index": 109
            },
            {
                "rt": 13,
                "trial_type": "single-stim",
                "stimulus": "<div class = centerbox style = text-align:center><p style = font-size:40px>Same or different? </p></div>",
                "trial_id": "response_line",
                "internal_node_id": "0.0-110.0",
                "correct": true,
                "time_elapsed": 315707,
                "key_press": 49,
                "alignment": [
                    "misaligned"
                ],
                "congruency": [
                    "incongruent"
                ],
                "response": [
                    "same"
                ],
                "trial_index": 110
            },
            {
                "rt": -1,
                "trial_type": "single-stim",
                "stimulus": "<div class = imageBox><img class = image src = img/line_images/10_target_01_01.png </img></div>",
                "trial_id": "target",
                "internal_node_id": "0.0-111.0",
                "time_elapsed": 316914,
                "key_press": -1,
                "trial_index": 111
            },
            {
                "rt": -1,
                "trial_type": "single-stim",
                "stimulus": "<div class = imageBox><img class = image src = img/Pmask5.jpg </img></div>",
                "trial_id": "mask",
                "internal_node_id": "0.0-112.0",
                "time_elapsed": 318324,
                "key_press": -1,
                "trial_index": 112
            },
            {
                "rt": -1,
                "trial_type": "single-stim",
                "stimulus": "<div class = imageBox><img class = image src = img/line_images/10_al_01_02.png </img></div>",
                "trial_id": "probe",
                "internal_node_id": "0.0-113.0",
                "time_elapsed": 319531,
                "key_press": -1,
                "trial_index": 113
            },
            {
                "rt": 606,
                "trial_type": "single-stim",
                "stimulus": "<div class = centerbox style = text-align:center><p style = font-size:40px>Same or different? </p></div>",
                "trial_id": "response_line",
                "internal_node_id": "0.0-114.0",
                "correct": true,
                "time_elapsed": 321142,
                "key_press": 49,
                "alignment": [
                    "aligned"
                ],
                "congruency": [
                    "incongruent"
                ],
                "response": [
                    "same"
                ],
                "trial_index": 114
            },
            {
                "rt": -1,
                "trial_type": "single-stim",
                "stimulus": "<div class = imageBox><img class = image src = img/line_images/5_target_01_01.png </img></div>",
                "trial_id": "target",
                "internal_node_id": "0.0-115.0",
                "time_elapsed": 322352,
                "key_press": -1,
                "trial_index": 115
            },
            {
                "rt": -1,
                "trial_type": "single-stim",
                "stimulus": "<div class = imageBox><img class = image src = img/Pmask5.jpg </img></div>",
                "trial_id": "mask",
                "internal_node_id": "0.0-116.0",
                "time_elapsed": 323762,
                "key_press": -1,
                "trial_index": 116
            },
            {
                "rt": -1,
                "trial_type": "single-stim",
                "stimulus": "<div class = imageBox><img class = image src = img/line_images/5_al_02_02.png </img></div>",
                "trial_id": "probe",
                "internal_node_id": "0.0-117.0",
                "time_elapsed": 324970,
                "key_press": -1,
                "trial_index": 117
            },
            {
                "rt": 105,
                "trial_type": "single-stim",
                "stimulus": "<div class = centerbox style = text-align:center><p style = font-size:40px>Same or different? </p></div>",
                "trial_id": "response_line",
                "internal_node_id": "0.0-118.0",
                "correct": false,
                "time_elapsed": 326078,
                "key_press": 49,
                "alignment": [
                    "aligned"
                ],
                "congruency": [
                    "congruent"
                ],
                "response": [
                    "different"
                ],
                "trial_index": 118
            },
            {
                "rt": -1,
                "trial_type": "single-stim",
                "stimulus": "<div class = imageBox><img class = image src = img/line_images/9_target_01_01.png </img></div>",
                "trial_id": "target",
                "internal_node_id": "0.0-119.0",
                "time_elapsed": 327285,
                "key_press": -1,
                "trial_index": 119
            },
            {
                "rt": -1,
                "trial_type": "single-stim",
                "stimulus": "<div class = imageBox><img class = image src = img/Pmask1.jpg </img></div>",
                "trial_id": "mask",
                "internal_node_id": "0.0-120.0",
                "time_elapsed": 328696,
                "key_press": -1,
                "trial_index": 120
            },
            {
                "rt": -1,
                "trial_type": "single-stim",
                "stimulus": "<div class = imageBox><img class = image src = img/line_images/9_al_01_01.png </img></div>",
                "trial_id": "probe",
                "internal_node_id": "0.0-121.0",
                "time_elapsed": 329903,
                "key_press": -1,
                "trial_index": 121
            },
            {
                "rt": 553,
                "trial_type": "single-stim",
                "stimulus": "<div class = centerbox style = text-align:center><p style = font-size:40px>Same or different? </p></div>",
                "trial_id": "response_line",
                "internal_node_id": "0.0-122.0",
                "correct": true,
                "time_elapsed": 331461,
                "key_press": 49,
                "alignment": [
                    "aligned"
                ],
                "congruency": [
                    "congruent"
                ],
                "response": [
                    "same"
                ],
                "trial_index": 122
            },
            {
                "rt": -1,
                "trial_type": "single-stim",
                "stimulus": "<div class = imageBox><img class = image src = img/line_images/10_target_01_01.png </img></div>",
                "trial_id": "target",
                "internal_node_id": "0.0-123.0",
                "time_elapsed": 332671,
                "key_press": -1,
                "trial_index": 123
            },
            {
                "rt": -1,
                "trial_type": "single-stim",
                "stimulus": "<div class = imageBox><img class = image src = img/Pmask2.jpg </img></div>",
                "trial_id": "mask",
                "internal_node_id": "0.0-124.0",
                "time_elapsed": 334082,
                "key_press": -1,
                "trial_index": 124
            },
            {
                "rt": -1,
                "trial_type": "single-stim",
                "stimulus": "<div class = imageBox><img class = image src = img/line_images/10_mis_02_02.png </img></div>",
                "trial_id": "probe",
                "internal_node_id": "0.0-125.0",
                "time_elapsed": 335289,
                "key_press": -1,
                "trial_index": 125
            },
            {
                "rt": 710,
                "trial_type": "single-stim",
                "stimulus": "<div class = centerbox style = text-align:center><p style = font-size:40px>Same or different? </p></div>",
                "trial_id": "response_line",
                "internal_node_id": "0.0-126.0",
                "correct": true,
                "time_elapsed": 337004,
                "key_press": 48,
                "alignment": [
                    "misaligned"
                ],
                "congruency": [
                    "congruent"
                ],
                "response": [
                    "different"
                ],
                "trial_index": 126
            },
            {
                "rt": -1,
                "trial_type": "single-stim",
                "stimulus": "<div class = imageBox><img class = image src = img/line_images/1_target_01_01.png </img></div>",
                "trial_id": "target",
                "internal_node_id": "0.0-127.0",
                "time_elapsed": 338214,
                "key_press": -1,
                "trial_index": 127
            },
            {
                "rt": -1,
                "trial_type": "single-stim",
                "stimulus": "<div class = imageBox><img class = image src = img/Pmask3.jpg </img></div>",
                "trial_id": "mask",
                "internal_node_id": "0.0-128.0",
                "time_elapsed": 339624,
                "key_press": -1,
                "trial_index": 128
            },
            {
                "rt": -1,
                "trial_type": "single-stim",
                "stimulus": "<div class = imageBox><img class = image src = img/line_images/1_al_02_01.png </img></div>",
                "trial_id": "probe",
                "internal_node_id": "0.0-129.0",
                "time_elapsed": 340832,
                "key_press": -1,
                "trial_index": 129
            },
            {
                "rt": 615,
                "trial_type": "single-stim",
                "stimulus": "<div class = centerbox style = text-align:center><p style = font-size:40px>Same or different? </p></div>",
                "trial_id": "response_line",
                "internal_node_id": "0.0-130.0",
                "correct": true,
                "time_elapsed": 342451,
                "key_press": 48,
                "alignment": [
                    "aligned"
                ],
                "congruency": [
                    "incongruent"
                ],
                "response": [
                    "different"
                ],
                "trial_index": 130
            },
            {
                "rt": -1,
                "trial_type": "single-stim",
                "stimulus": "<div class = imageBox><img class = image src = img/line_images/18_target_01_01.png </img></div>",
                "trial_id": "target",
                "internal_node_id": "0.0-131.0",
                "time_elapsed": 343658,
                "key_press": -1,
                "trial_index": 131
            },
            {
                "rt": -1,
                "trial_type": "single-stim",
                "stimulus": "<div class = imageBox><img class = image src = img/Pmask4.jpg </img></div>",
                "trial_id": "mask",
                "internal_node_id": "0.0-132.0",
                "time_elapsed": 345068,
                "key_press": -1,
                "trial_index": 132
            },
            {
                "rt": -1,
                "trial_type": "single-stim",
                "stimulus": "<div class = imageBox><img class = image src = img/line_images/18_mis_01_02.png </img></div>",
                "trial_id": "probe",
                "internal_node_id": "0.0-133.0",
                "time_elapsed": 346276,
                "key_press": -1,
                "trial_index": 133
            },
            {
                "rt": 1596,
                "trial_type": "single-stim",
                "stimulus": "<div class = centerbox style = text-align:center><p style = font-size:40px>Same or different? </p></div>",
                "trial_id": "response_line",
                "internal_node_id": "0.0-134.0",
                "correct": true,
                "time_elapsed": 348877,
                "key_press": 49,
                "alignment": [
                    "misaligned"
                ],
                "congruency": [
                    "incongruent"
                ],
                "response": [
                    "same"
                ],
                "trial_index": 134
            },
            {
                "rt": -1,
                "trial_type": "single-stim",
                "stimulus": "<div class = imageBox><img class = image src = img/line_images/8_target_01_01.png </img></div>",
                "trial_id": "target",
                "internal_node_id": "0.0-135.0",
                "time_elapsed": 350082,
                "key_press": -1,
                "trial_index": 135
            },
            {
                "rt": -1,
                "trial_type": "single-stim",
                "stimulus": "<div class = imageBox><img class = image src = img/Pmask3.jpg </img></div>",
                "trial_id": "mask",
                "internal_node_id": "0.0-136.0",
                "time_elapsed": 351493,
                "key_press": -1,
                "trial_index": 136
            },
            {
                "rt": -1,
                "trial_type": "single-stim",
                "stimulus": "<div class = imageBox><img class = image src = img/line_images/8_al_02_02.png </img></div>",
                "trial_id": "probe",
                "internal_node_id": "0.0-137.0",
                "time_elapsed": 352700,
                "key_press": -1,
                "trial_index": 137
            },
            {
                "rt": 455,
                "trial_type": "single-stim",
                "stimulus": "<div class = centerbox style = text-align:center><p style = font-size:40px>Same or different? </p></div>",
                "trial_id": "response_line",
                "internal_node_id": "0.0-138.0",
                "correct": true,
                "time_elapsed": 354159,
                "key_press": 48,
                "alignment": [
                    "aligned"
                ],
                "congruency": [
                    "congruent"
                ],
                "response": [
                    "different"
                ],
                "trial_index": 138
            },
            {
                "rt": -1,
                "trial_type": "single-stim",
                "stimulus": "<div class = imageBox><img class = image src = img/line_images/15_target_01_01.png </img></div>",
                "trial_id": "target",
                "internal_node_id": "0.0-139.0",
                "time_elapsed": 355364,
                "key_press": -1,
                "trial_index": 139
            },
            {
                "rt": -1,
                "trial_type": "single-stim",
                "stimulus": "<div class = imageBox><img class = image src = img/Pmask3.jpg </img></div>",
                "trial_id": "mask",
                "internal_node_id": "0.0-140.0",
                "time_elapsed": 356776,
                "key_press": -1,
                "trial_index": 140
            },
            {
                "rt": -1,
                "trial_type": "single-stim",
                "stimulus": "<div class = imageBox><img class = image src = img/line_images/15_mis_01_02.png </img></div>",
                "trial_id": "probe",
                "internal_node_id": "0.0-141.0",
                "time_elapsed": 357982,
                "key_press": -1,
                "trial_index": 141
            },
            {
                "rt": 862,
                "trial_type": "single-stim",
                "stimulus": "<div class = centerbox style = text-align:center><p style = font-size:40px>Same or different? </p></div>",
                "trial_id": "response_line",
                "internal_node_id": "0.0-142.0",
                "correct": false,
                "time_elapsed": 359847,
                "key_press": 48,
                "alignment": [
                    "misaligned"
                ],
                "congruency": [
                    "incongruent"
                ],
                "response": [
                    "same"
                ],
                "trial_index": 142
            },
            {
                "rt": -1,
                "trial_type": "single-stim",
                "stimulus": "<div class = imageBox><img class = image src = img/line_images/14_target_01_01.png </img></div>",
                "trial_id": "target",
                "internal_node_id": "0.0-143.0",
                "time_elapsed": 361052,
                "key_press": -1,
                "trial_index": 143
            },
            {
                "rt": -1,
                "trial_type": "single-stim",
                "stimulus": "<div class = imageBox><img class = image src = img/Pmask4.jpg </img></div>",
                "trial_id": "mask",
                "internal_node_id": "0.0-144.0",
                "time_elapsed": 362463,
                "key_press": -1,
                "trial_index": 144
            },
            {
                "rt": -1,
                "trial_type": "single-stim",
                "stimulus": "<div class = imageBox><img class = image src = img/line_images/14_al_01_01.png </img></div>",
                "trial_id": "probe",
                "internal_node_id": "0.0-145.0",
                "time_elapsed": 363670,
                "key_press": -1,
                "trial_index": 145
            },
            {
                "rt": 609,
                "trial_type": "single-stim",
                "stimulus": "<div class = centerbox style = text-align:center><p style = font-size:40px>Same or different? </p></div>",
                "trial_id": "response_line",
                "internal_node_id": "0.0-146.0",
                "correct": true,
                "time_elapsed": 365283,
                "key_press": 49,
                "alignment": [
                    "aligned"
                ],
                "congruency": [
                    "congruent"
                ],
                "response": [
                    "same"
                ],
                "trial_index": 146
            },
            {
                "rt": -1,
                "trial_type": "single-stim",
                "stimulus": "<div class = imageBox><img class = image src = img/line_images/3_target_01_01.png </img></div>",
                "trial_id": "target",
                "internal_node_id": "0.0-147.0",
                "time_elapsed": 366490,
                "key_press": -1,
                "trial_index": 147
            },
            {
                "rt": -1,
                "trial_type": "single-stim",
                "stimulus": "<div class = imageBox><img class = image src = img/Pmask4.jpg </img></div>",
                "trial_id": "mask",
                "internal_node_id": "0.0-148.0",
                "time_elapsed": 367901,
                "key_press": -1,
                "trial_index": 148
            },
            {
                "rt": -1,
                "trial_type": "single-stim",
                "stimulus": "<div class = imageBox><img class = image src = img/line_images/3_al_02_02.png </img></div>",
                "trial_id": "probe",
                "internal_node_id": "0.0-149.0",
                "time_elapsed": 369108,
                "key_press": -1,
                "trial_index": 149
            },
            {
                "rt": 1519,
                "trial_type": "single-stim",
                "stimulus": "<div class = centerbox style = text-align:center><p style = font-size:40px>Same or different? </p></div>",
                "trial_id": "response_line",
                "internal_node_id": "0.0-150.0",
                "correct": true,
                "time_elapsed": 371632,
                "key_press": 48,
                "alignment": [
                    "aligned"
                ],
                "congruency": [
                    "congruent"
                ],
                "response": [
                    "different"
                ],
                "trial_index": 150
            },
            {
                "rt": -1,
                "trial_type": "single-stim",
                "stimulus": "<div class = imageBox><img class = image src = img/line_images/12_target_01_01.png </img></div>",
                "trial_id": "target",
                "internal_node_id": "0.0-151.0",
                "time_elapsed": 372840,
                "key_press": -1,
                "trial_index": 151
            },
            {
                "rt": -1,
                "trial_type": "single-stim",
                "stimulus": "<div class = imageBox><img class = image src = img/Pmask1.jpg </img></div>",
                "trial_id": "mask",
                "internal_node_id": "0.0-152.0",
                "time_elapsed": 374250,
                "key_press": -1,
                "trial_index": 152
            },
            {
                "rt": -1,
                "trial_type": "single-stim",
                "stimulus": "<div class = imageBox><img class = image src = img/line_images/12_mis_01_01.png </img></div>",
                "trial_id": "probe",
                "internal_node_id": "0.0-153.0",
                "time_elapsed": 375458,
                "key_press": -1,
                "trial_index": 153
            },
            {
                "rt": 92,
                "trial_type": "single-stim",
                "stimulus": "<div class = centerbox style = text-align:center><p style = font-size:40px>Same or different? </p></div>",
                "trial_id": "response_line",
                "internal_node_id": "0.0-154.0",
                "correct": true,
                "time_elapsed": 376554,
                "key_press": 49,
                "alignment": [
                    "misaligned"
                ],
                "congruency": [
                    "congruent"
                ],
                "response": [
                    "same"
                ],
                "trial_index": 154
            },
            {
                "rt": -1,
                "trial_type": "single-stim",
                "stimulus": "<div class = imageBox><img class = image src = img/line_images/12_target_01_01.png </img></div>",
                "trial_id": "target",
                "internal_node_id": "0.0-155.0",
                "time_elapsed": 377761,
                "key_press": -1,
                "trial_index": 155
            },
            {
                "rt": -1,
                "trial_type": "single-stim",
                "stimulus": "<div class = imageBox><img class = image src = img/Pmask5.jpg </img></div>",
                "trial_id": "mask",
                "internal_node_id": "0.0-156.0",
                "time_elapsed": 379172,
                "key_press": -1,
                "trial_index": 156
            },
            {
                "rt": -1,
                "trial_type": "single-stim",
                "stimulus": "<div class = imageBox><img class = image src = img/line_images/12_mis_02_01.png </img></div>",
                "trial_id": "probe",
                "internal_node_id": "0.0-157.0",
                "time_elapsed": 380379,
                "key_press": -1,
                "trial_index": 157
            },
            {
                "rt": 395,
                "trial_type": "single-stim",
                "stimulus": "<div class = centerbox style = text-align:center><p style = font-size:40px>Same or different? </p></div>",
                "trial_id": "response_line",
                "internal_node_id": "0.0-158.0",
                "correct": false,
                "time_elapsed": 381779,
                "key_press": 49,
                "alignment": [
                    "misaligned"
                ],
                "congruency": [
                    "incongruent"
                ],
                "response": [
                    "different"
                ],
                "trial_index": 158
            },
            {
                "rt": -1,
                "trial_type": "single-stim",
                "stimulus": "<div class = imageBox><img class = image src = img/line_images/17_target_01_01.png </img></div>",
                "trial_id": "target",
                "internal_node_id": "0.0-159.0",
                "time_elapsed": 382987,
                "key_press": -1,
                "trial_index": 159
            },
            {
                "rt": -1,
                "trial_type": "single-stim",
                "stimulus": "<div class = imageBox><img class = image src = img/Pmask5.jpg </img></div>",
                "trial_id": "mask",
                "internal_node_id": "0.0-160.0",
                "time_elapsed": 384396,
                "key_press": -1,
                "trial_index": 160
            },
            {
                "rt": -1,
                "trial_type": "single-stim",
                "stimulus": "<div class = imageBox><img class = image src = img/line_images/17_al_02_02.png </img></div>",
                "trial_id": "probe",
                "internal_node_id": "0.0-161.0",
                "time_elapsed": 385604,
                "key_press": -1,
                "trial_index": 161
            },
            {
                "rt": 12,
                "trial_type": "single-stim",
                "stimulus": "<div class = centerbox style = text-align:center><p style = font-size:40px>Same or different? </p></div>",
                "trial_id": "response_line",
                "internal_node_id": "0.0-162.0",
                "correct": true,
                "time_elapsed": 386619,
                "key_press": 48,
                "alignment": [
                    "aligned"
                ],
                "congruency": [
                    "congruent"
                ],
                "response": [
                    "different"
                ],
                "trial_index": 162
            },
            {
                "rt": -1,
                "trial_type": "single-stim",
                "stimulus": "<div class = imageBox><img class = image src = img/line_images/19_target_01_01.png </img></div>",
                "trial_id": "target",
                "internal_node_id": "0.0-163.0",
                "time_elapsed": 387826,
                "key_press": -1,
                "trial_index": 163
            },
            {
                "rt": -1,
                "trial_type": "single-stim",
                "stimulus": "<div class = imageBox><img class = image src = img/Pmask5.jpg </img></div>",
                "trial_id": "mask",
                "internal_node_id": "0.0-164.0",
                "time_elapsed": 389236,
                "key_press": -1,
                "trial_index": 164
            },
            {
                "rt": -1,
                "trial_type": "single-stim",
                "stimulus": "<div class = imageBox><img class = image src = img/line_images/19_mis_02_02.png </img></div>",
                "trial_id": "probe",
                "internal_node_id": "0.0-165.0",
                "time_elapsed": 390443,
                "key_press": -1,
                "trial_index": 165
            },
            {
                "rt": 481,
                "trial_type": "single-stim",
                "stimulus": "<div class = centerbox style = text-align:center><p style = font-size:40px>Same or different? </p></div>",
                "trial_id": "response_line",
                "internal_node_id": "0.0-166.0",
                "correct": false,
                "time_elapsed": 391929,
                "key_press": 49,
                "alignment": [
                    "misaligned"
                ],
                "congruency": [
                    "congruent"
                ],
                "response": [
                    "different"
                ],
                "trial_index": 166
            },
            {
                "rt": -1,
                "trial_type": "single-stim",
                "stimulus": "<div class = imageBox><img class = image src = img/line_images/7_target_01_01.png </img></div>",
                "trial_id": "target",
                "internal_node_id": "0.0-167.0",
                "time_elapsed": 393136,
                "key_press": -1,
                "trial_index": 167
            },
            {
                "rt": -1,
                "trial_type": "single-stim",
                "stimulus": "<div class = imageBox><img class = image src = img/Pmask2.jpg </img></div>",
                "trial_id": "mask",
                "internal_node_id": "0.0-168.0",
                "time_elapsed": 394546,
                "key_press": -1,
                "trial_index": 168
            },
            {
                "rt": -1,
                "trial_type": "single-stim",
                "stimulus": "<div class = imageBox><img class = image src = img/line_images/7_mis_01_02.png </img></div>",
                "trial_id": "probe",
                "internal_node_id": "0.0-169.0",
                "time_elapsed": 395756,
                "key_press": -1,
                "trial_index": 169
            },
            {
                "rt": 668,
                "trial_type": "single-stim",
                "stimulus": "<div class = centerbox style = text-align:center><p style = font-size:40px>Same or different? </p></div>",
                "trial_id": "response_line",
                "internal_node_id": "0.0-170.0",
                "correct": true,
                "time_elapsed": 397426,
                "key_press": 49,
                "alignment": [
                    "misaligned"
                ],
                "congruency": [
                    "incongruent"
                ],
                "response": [
                    "same"
                ],
                "trial_index": 170
            },
            {
                "rt": -1,
                "trial_type": "single-stim",
                "stimulus": "<div class = imageBox><img class = image src = img/line_images/13_target_01_01.png </img></div>",
                "trial_id": "target",
                "internal_node_id": "0.0-171.0",
                "time_elapsed": 398632,
                "key_press": -1,
                "trial_index": 171
            },
            {
                "rt": -1,
                "trial_type": "single-stim",
                "stimulus": "<div class = imageBox><img class = image src = img/Pmask1.jpg </img></div>",
                "trial_id": "mask",
                "internal_node_id": "0.0-172.0",
                "time_elapsed": 400043,
                "key_press": -1,
                "trial_index": 172
            },
            {
                "rt": -1,
                "trial_type": "single-stim",
                "stimulus": "<div class = imageBox><img class = image src = img/line_images/13_mis_01_01.png </img></div>",
                "trial_id": "probe",
                "internal_node_id": "0.0-173.0",
                "time_elapsed": 401250,
                "key_press": -1,
                "trial_index": 173
            },
            {
                "rt": 47,
                "trial_type": "single-stim",
                "stimulus": "<div class = centerbox style = text-align:center><p style = font-size:40px>Same or different? </p></div>",
                "trial_id": "response_line",
                "internal_node_id": "0.0-174.0",
                "correct": true,
                "time_elapsed": 402301,
                "key_press": 49,
                "alignment": [
                    "misaligned"
                ],
                "congruency": [
                    "congruent"
                ],
                "response": [
                    "same"
                ],
                "trial_index": 174
            },
            {
                "rt": -1,
                "trial_type": "single-stim",
                "stimulus": "<div class = imageBox><img class = image src = img/line_images/11_target_01_01.png </img></div>",
                "trial_id": "target",
                "internal_node_id": "0.0-175.0",
                "time_elapsed": 403509,
                "key_press": -1,
                "trial_index": 175
            },
            {
                "rt": -1,
                "trial_type": "single-stim",
                "stimulus": "<div class = imageBox><img class = image src = img/Pmask1.jpg </img></div>",
                "trial_id": "mask",
                "internal_node_id": "0.0-176.0",
                "time_elapsed": 404918,
                "key_press": -1,
                "trial_index": 176
            },
            {
                "rt": -1,
                "trial_type": "single-stim",
                "stimulus": "<div class = imageBox><img class = image src = img/line_images/11_al_01_02.png </img></div>",
                "trial_id": "probe",
                "internal_node_id": "0.0-177.0",
                "time_elapsed": 406125,
                "key_press": -1,
                "trial_index": 177
            },
            {
                "rt": 263,
                "trial_type": "single-stim",
                "stimulus": "<div class = centerbox style = text-align:center><p style = font-size:40px>Same or different? </p></div>",
                "trial_id": "response_line",
                "internal_node_id": "0.0-178.0",
                "correct": true,
                "time_elapsed": 407392,
                "key_press": 49,
                "alignment": [
                    "aligned"
                ],
                "congruency": [
                    "incongruent"
                ],
                "response": [
                    "same"
                ],
                "trial_index": 178
            },
            {
                "rt": -1,
                "trial_type": "single-stim",
                "stimulus": "<div class = imageBox><img class = image src = img/line_images/1_target_01_01.png </img></div>",
                "trial_id": "target",
                "internal_node_id": "0.0-179.0",
                "time_elapsed": 408598,
                "key_press": -1,
                "trial_index": 179
            },
            {
                "rt": -1,
                "trial_type": "single-stim",
                "stimulus": "<div class = imageBox><img class = image src = img/Pmask3.jpg </img></div>",
                "trial_id": "mask",
                "internal_node_id": "0.0-180.0",
                "time_elapsed": 410008,
                "key_press": -1,
                "trial_index": 180
            },
            {
                "rt": -1,
                "trial_type": "single-stim",
                "stimulus": "<div class = imageBox><img class = image src = img/line_images/1_al_02_02.png </img></div>",
                "trial_id": "probe",
                "internal_node_id": "0.0-181.0",
                "time_elapsed": 411218,
                "key_press": -1,
                "trial_index": 181
            },
            {
                "rt": 618,
                "trial_type": "single-stim",
                "stimulus": "<div class = centerbox style = text-align:center><p style = font-size:40px>Same or different? </p></div>",
                "trial_id": "response_line",
                "internal_node_id": "0.0-182.0",
                "correct": true,
                "time_elapsed": 412843,
                "key_press": 48,
                "alignment": [
                    "aligned"
                ],
                "congruency": [
                    "congruent"
                ],
                "response": [
                    "different"
                ],
                "trial_index": 182
            },
            {
                "rt": -1,
                "trial_type": "single-stim",
                "stimulus": "<div class = imageBox><img class = image src = img/line_images/7_target_01_01.png </img></div>",
                "trial_id": "target",
                "internal_node_id": "0.0-183.0",
                "time_elapsed": 414053,
                "key_press": -1,
                "trial_index": 183
            },
            {
                "rt": -1,
                "trial_type": "single-stim",
                "stimulus": "<div class = imageBox><img class = image src = img/Pmask4.jpg </img></div>",
                "trial_id": "mask",
                "internal_node_id": "0.0-184.0",
                "time_elapsed": 415464,
                "key_press": -1,
                "trial_index": 184
            },
            {
                "rt": -1,
                "trial_type": "single-stim",
                "stimulus": "<div class = imageBox><img class = image src = img/line_images/7_al_01_02.png </img></div>",
                "trial_id": "probe",
                "internal_node_id": "0.0-185.0",
                "time_elapsed": 416670,
                "key_press": -1,
                "trial_index": 185
            },
            {
                "rt": 4,
                "trial_type": "single-stim",
                "stimulus": "<div class = centerbox style = text-align:center><p style = font-size:40px>Same or different? </p></div>",
                "trial_id": "response_line",
                "internal_node_id": "0.0-186.0",
                "correct": true,
                "time_elapsed": 417679,
                "key_press": 49,
                "alignment": [
                    "aligned"
                ],
                "congruency": [
                    "incongruent"
                ],
                "response": [
                    "same"
                ],
                "trial_index": 186
            },
            {
                "rt": -1,
                "trial_type": "single-stim",
                "stimulus": "<div class = imageBox><img class = image src = img/line_images/3_target_01_01.png </img></div>",
                "trial_id": "target",
                "internal_node_id": "0.0-187.0",
                "time_elapsed": 418888,
                "key_press": -1,
                "trial_index": 187
            },
            {
                "rt": -1,
                "trial_type": "single-stim",
                "stimulus": "<div class = imageBox><img class = image src = img/Pmask3.jpg </img></div>",
                "trial_id": "mask",
                "internal_node_id": "0.0-188.0",
                "time_elapsed": 420298,
                "key_press": -1,
                "trial_index": 188
            },
            {
                "rt": -1,
                "trial_type": "single-stim",
                "stimulus": "<div class = imageBox><img class = image src = img/line_images/3_mis_01_01.png </img></div>",
                "trial_id": "probe",
                "internal_node_id": "0.0-189.0",
                "time_elapsed": 421505,
                "key_press": -1,
                "trial_index": 189
            },
            {
                "rt": 884,
                "trial_type": "single-stim",
                "stimulus": "<div class = centerbox style = text-align:center><p style = font-size:40px>Same or different? </p></div>",
                "trial_id": "response_line",
                "internal_node_id": "0.0-190.0",
                "correct": true,
                "time_elapsed": 423394,
                "key_press": 49,
                "alignment": [
                    "misaligned"
                ],
                "congruency": [
                    "congruent"
                ],
                "response": [
                    "same"
                ],
                "trial_index": 190
            },
            {
                "rt": -1,
                "trial_type": "single-stim",
                "stimulus": "<div class = imageBox><img class = image src = img/line_images/9_target_01_01.png </img></div>",
                "trial_id": "target",
                "internal_node_id": "0.0-191.0",
                "time_elapsed": 424604,
                "key_press": -1,
                "trial_index": 191
            },
            {
                "rt": -1,
                "trial_type": "single-stim",
                "stimulus": "<div class = imageBox><img class = image src = img/Pmask4.jpg </img></div>",
                "trial_id": "mask",
                "internal_node_id": "0.0-192.0",
                "time_elapsed": 426015,
                "key_press": -1,
                "trial_index": 192
            },
            {
                "rt": -1,
                "trial_type": "single-stim",
                "stimulus": "<div class = imageBox><img class = image src = img/line_images/9_al_02_01.png </img></div>",
                "trial_id": "probe",
                "internal_node_id": "0.0-193.0",
                "time_elapsed": 427224,
                "key_press": -1,
                "trial_index": 193
            },
            {
                "rt": 17,
                "trial_type": "single-stim",
                "stimulus": "<div class = centerbox style = text-align:center><p style = font-size:40px>Same or different? </p></div>",
                "trial_id": "response_line",
                "internal_node_id": "0.0-194.0",
                "correct": true,
                "time_elapsed": 428248,
                "key_press": 48,
                "alignment": [
                    "aligned"
                ],
                "congruency": [
                    "incongruent"
                ],
                "response": [
                    "different"
                ],
                "trial_index": 194
            },
            {
                "rt": -1,
                "trial_type": "single-stim",
                "stimulus": "<div class = imageBox><img class = image src = img/line_images/6_target_01_01.png </img></div>",
                "trial_id": "target",
                "internal_node_id": "0.0-195.0",
                "time_elapsed": 429457,
                "key_press": -1,
                "trial_index": 195
            },
            {
                "rt": -1,
                "trial_type": "single-stim",
                "stimulus": "<div class = imageBox><img class = image src = img/Pmask5.jpg </img></div>",
                "trial_id": "mask",
                "internal_node_id": "0.0-196.0",
                "time_elapsed": 430867,
                "key_press": -1,
                "trial_index": 196
            },
            {
                "rt": -1,
                "trial_type": "single-stim",
                "stimulus": "<div class = imageBox><img class = image src = img/line_images/6_mis_01_01.png </img></div>",
                "trial_id": "probe",
                "internal_node_id": "0.0-197.0",
                "time_elapsed": 432074,
                "key_press": -1,
                "trial_index": 197
            },
            {
                "rt": 526,
                "trial_type": "single-stim",
                "stimulus": "<div class = centerbox style = text-align:center><p style = font-size:40px>Same or different? </p></div>",
                "trial_id": "response_line",
                "internal_node_id": "0.0-198.0",
                "correct": true,
                "time_elapsed": 433604,
                "key_press": 49,
                "alignment": [
                    "misaligned"
                ],
                "congruency": [
                    "congruent"
                ],
                "response": [
                    "same"
                ],
                "trial_index": 198
            },
            {
                "rt": -1,
                "trial_type": "single-stim",
                "stimulus": "<div class = imageBox><img class = image src = img/line_images/14_target_01_01.png </img></div>",
                "trial_id": "target",
                "internal_node_id": "0.0-199.0",
                "time_elapsed": 434814,
                "key_press": -1,
                "trial_index": 199
            },
            {
                "rt": -1,
                "trial_type": "single-stim",
                "stimulus": "<div class = imageBox><img class = image src = img/Pmask4.jpg </img></div>",
                "trial_id": "mask",
                "internal_node_id": "0.0-200.0",
                "time_elapsed": 436224,
                "key_press": -1,
                "trial_index": 200
            },
            {
                "rt": -1,
                "trial_type": "single-stim",
                "stimulus": "<div class = imageBox><img class = image src = img/line_images/14_mis_01_02.png </img></div>",
                "trial_id": "probe",
                "internal_node_id": "0.0-201.0",
                "time_elapsed": 437431,
                "key_press": -1,
                "trial_index": 201
            },
            {
                "rt": 126,
                "trial_type": "single-stim",
                "stimulus": "<div class = centerbox style = text-align:center><p style = font-size:40px>Same or different? </p></div>",
                "trial_id": "response_line",
                "internal_node_id": "0.0-202.0",
                "correct": true,
                "time_elapsed": 438562,
                "key_press": 49,
                "alignment": [
                    "misaligned"
                ],
                "congruency": [
                    "incongruent"
                ],
                "response": [
                    "same"
                ],
                "trial_index": 202
            },
            {
                "rt": -1,
                "trial_type": "single-stim",
                "stimulus": "<div class = imageBox><img class = image src = img/line_images/8_target_01_01.png </img></div>",
                "trial_id": "target",
                "internal_node_id": "0.0-203.0",
                "time_elapsed": 439770,
                "key_press": -1,
                "trial_index": 203
            },
            {
                "rt": -1,
                "trial_type": "single-stim",
                "stimulus": "<div class = imageBox><img class = image src = img/Pmask1.jpg </img></div>",
                "trial_id": "mask",
                "internal_node_id": "0.0-204.0",
                "time_elapsed": 441181,
                "key_press": -1,
                "trial_index": 204
            },
            {
                "rt": -1,
                "trial_type": "single-stim",
                "stimulus": "<div class = imageBox><img class = image src = img/line_images/8_mis_02_01.png </img></div>",
                "trial_id": "probe",
                "internal_node_id": "0.0-205.0",
                "time_elapsed": 442388,
                "key_press": -1,
                "trial_index": 205
            },
            {
                "rt": 1214,
                "trial_type": "single-stim",
                "stimulus": "<div class = centerbox style = text-align:center><p style = font-size:40px>Same or different? </p></div>",
                "trial_id": "response_line",
                "internal_node_id": "0.0-206.0",
                "correct": false,
                "time_elapsed": 444606,
                "key_press": 49,
                "alignment": [
                    "misaligned"
                ],
                "congruency": [
                    "incongruent"
                ],
                "response": [
                    "different"
                ],
                "trial_index": 206
            },
            {
                "rt": -1,
                "trial_type": "single-stim",
                "stimulus": "<div class = imageBox><img class = image src = img/line_images/6_target_01_01.png </img></div>",
                "trial_id": "target",
                "internal_node_id": "0.0-207.0",
                "time_elapsed": 445812,
                "key_press": -1,
                "trial_index": 207
            },
            {
                "rt": -1,
                "trial_type": "single-stim",
                "stimulus": "<div class = imageBox><img class = image src = img/Pmask5.jpg </img></div>",
                "trial_id": "mask",
                "internal_node_id": "0.0-208.0",
                "time_elapsed": 447223,
                "key_press": -1,
                "trial_index": 208
            },
            {
                "rt": -1,
                "trial_type": "single-stim",
                "stimulus": "<div class = imageBox><img class = image src = img/line_images/6_al_02_02.png </img></div>",
                "trial_id": "probe",
                "internal_node_id": "0.0-209.0",
                "time_elapsed": 448430,
                "key_press": -1,
                "trial_index": 209
            },
            {
                "rt": 457,
                "trial_type": "single-stim",
                "stimulus": "<div class = centerbox style = text-align:center><p style = font-size:40px>Same or different? </p></div>",
                "trial_id": "response_line",
                "internal_node_id": "0.0-210.0",
                "correct": true,
                "time_elapsed": 449891,
                "key_press": 48,
                "alignment": [
                    "aligned"
                ],
                "congruency": [
                    "congruent"
                ],
                "response": [
                    "different"
                ],
                "trial_index": 210
            },
            {
                "rt": -1,
                "trial_type": "single-stim",
                "stimulus": "<div class = imageBox><img class = image src = img/line_images/11_target_01_01.png </img></div>",
                "trial_id": "target",
                "internal_node_id": "0.0-211.0",
                "time_elapsed": 451100,
                "key_press": -1,
                "trial_index": 211
            },
            {
                "rt": -1,
                "trial_type": "single-stim",
                "stimulus": "<div class = imageBox><img class = image src = img/Pmask2.jpg </img></div>",
                "trial_id": "mask",
                "internal_node_id": "0.0-212.0",
                "time_elapsed": 452510,
                "key_press": -1,
                "trial_index": 212
            },
            {
                "rt": -1,
