{
    "AutoApprovalTime": "2017-11-29T20:21:42Z",
    "AssignmentId": "340UGXU9DY160RC7KRMORLK99CHVU9",
    "WorkerId": "A191V7PT3DQKDP",
    "answers": {
        "data": [
            {
                "rt": -1,
                "trial_type": "text",
                "internal_node_id": "0.0-0.0",
                "time_elapsed": 3010,
                "key_press": 13,
                "trial_index": 0
            },
            {
                "rt": -1,
                "trial_type": "text",
                "internal_node_id": "0.0-1.0",
                "time_elapsed": 32577,
                "key_press": 13,
                "trial_index": 1
            },
            {
                "rt": -1,
                "trial_type": "single-stim",
                "stimulus": "<div class = imageBox><img class = image src = img/line_images/23_target_01_01.png </img></div>",
                "internal_node_id": "0.0-2.0",
                "time_elapsed": 34783,
                "key_press": -1,
                "trial_index": 2
            },
            {
                "rt": -1,
                "trial_type": "single-stim",
                "stimulus": "<div class = imageBox><img class = image src = img/Pmask1.jpg </img></div>",
                "trial_id": "mask",
                "internal_node_id": "0.0-3.0",
                "time_elapsed": 36182,
                "key_press": -1,
                "trial_index": 3
            },
            {
                "rt": -1,
                "trial_type": "single-stim",
                "stimulus": "<div class = imageBox><img class = image src = img/line_images/23_al_01_01.png </img></div>",
                "internal_node_id": "0.0-4.0",
                "time_elapsed": 37384,
                "key_press": -1,
                "trial_index": 4
            },
            {
                "rt": -1,
                "trial_type": "single-stim",
                "stimulus": "<div class = centerbox style = text-align:center><p style = font-size:50px>Same or different? </p></div>",
                "internal_node_id": "0.0-5.0",
                "correct": true,
                "time_elapsed": 39388,
                "key_press": 49,
                "response": [
                    "same"
                ],
                "trial_index": 5
            },
            {
                "rt": -1,
                "trial_type": "single-stim",
                "stimulus": "<div class = centerbox style = text-align:center><p style = font-size:40px><span class = 'large' style = 'color:green'>Correct!</span> </p></div>",
                "internal_node_id": "0.0-6.0",
                "time_elapsed": 40893,
                "key_press": -1,
                "trial_index": 6
            },
            {
                "rt": -1,
                "trial_type": "single-stim",
                "stimulus": "<div class = imageBox><img class = image src = img/line_images/23_target_01_01.png </img></div>",
                "internal_node_id": "0.0-7.0",
                "time_elapsed": 42095,
                "key_press": -1,
                "trial_index": 7
            },
            {
                "rt": -1,
                "trial_type": "single-stim",
                "stimulus": "<div class = imageBox><img class = image src = img/Pmask4.jpg </img></div>",
                "trial_id": "mask",
                "internal_node_id": "0.0-8.0",
                "time_elapsed": 43498,
                "key_press": -1,
                "trial_index": 8
            },
            {
                "rt": -1,
                "trial_type": "single-stim",
                "stimulus": "<div class = imageBox><img class = image src = img/line_images/23_mis_02_01.png </img></div>",
                "internal_node_id": "0.0-9.0",
                "time_elapsed": 44700,
                "key_press": -1,
                "trial_index": 9
            },
            {
                "rt": -1,
                "trial_type": "single-stim",
                "stimulus": "<div class = centerbox style = text-align:center><p style = font-size:50px>Same or different? </p></div>",
                "internal_node_id": "0.0-10.0",
                "correct": true,
                "time_elapsed": 46063,
                "key_press": 48,
                "response": [
                    "different"
                ],
                "trial_index": 10
            },
            {
                "rt": -1,
                "trial_type": "single-stim",
                "stimulus": "<div class = centerbox style = text-align:center><p style = font-size:40px><span class = 'large' style = 'color:green'>Correct!</span> </p></div>",
                "internal_node_id": "0.0-11.0",
                "time_elapsed": 47565,
                "key_press": -1,
                "trial_index": 11
            },
            {
                "rt": -1,
                "trial_type": "single-stim",
                "stimulus": "<div class = imageBox><img class = image src = img/line_images/24_target_01_01.png </img></div>",
                "internal_node_id": "0.0-12.0",
                "time_elapsed": 48767,
                "key_press": -1,
                "trial_index": 12
            },
            {
                "rt": -1,
                "trial_type": "single-stim",
                "stimulus": "<div class = imageBox><img class = image src = img/Pmask1.jpg </img></div>",
                "trial_id": "mask",
                "internal_node_id": "0.0-13.0",
                "time_elapsed": 50169,
                "key_press": -1,
                "trial_index": 13
            },
            {
                "rt": -1,
                "trial_type": "single-stim",
                "stimulus": "<div class = imageBox><img class = image src = img/line_images/24_al_01_01.png </img></div>",
                "internal_node_id": "0.0-14.0",
                "time_elapsed": 51371,
                "key_press": -1,
                "trial_index": 14
            },
            {
                "rt": -1,
                "trial_type": "single-stim",
                "stimulus": "<div class = centerbox style = text-align:center><p style = font-size:50px>Same or different? </p></div>",
                "internal_node_id": "0.0-15.0",
                "correct": true,
                "time_elapsed": 52645,
                "key_press": 49,
                "response": [
                    "same"
                ],
                "trial_index": 15
            },
            {
                "rt": -1,
                "trial_type": "single-stim",
                "stimulus": "<div class = centerbox style = text-align:center><p style = font-size:40px><span class = 'large' style = 'color:green'>Correct!</span> </p></div>",
                "internal_node_id": "0.0-16.0",
                "time_elapsed": 54147,
                "key_press": -1,
                "trial_index": 16
            },
            {
                "rt": -1,
                "trial_type": "single-stim",
                "stimulus": "<div class = imageBox><img class = image src = img/line_images/21_target_01_01.png </img></div>",
                "internal_node_id": "0.0-17.0",
                "time_elapsed": 55349,
                "key_press": -1,
                "trial_index": 17
            },
            {
                "rt": -1,
                "trial_type": "single-stim",
                "stimulus": "<div class = imageBox><img class = image src = img/Pmask1.jpg </img></div>",
                "trial_id": "mask",
                "internal_node_id": "0.0-18.0",
                "time_elapsed": 56751,
                "key_press": -1,
                "trial_index": 18
            },
            {
                "rt": -1,
                "trial_type": "single-stim",
                "stimulus": "<div class = imageBox><img class = image src = img/line_images/21_mis_01_01.png </img></div>",
                "internal_node_id": "0.0-19.0",
                "time_elapsed": 57953,
                "key_press": -1,
                "trial_index": 19
            },
            {
                "rt": -1,
                "trial_type": "single-stim",
                "stimulus": "<div class = centerbox style = text-align:center><p style = font-size:50px>Same or different? </p></div>",
                "internal_node_id": "0.0-20.0",
                "correct": false,
                "time_elapsed": 59222,
                "key_press": 48,
                "response": [
                    "same"
                ],
                "trial_index": 20
            },
            {
                "rt": -1,
                "trial_type": "single-stim",
                "stimulus": "<div class = centerbox style = text-align:center><p style = font-size:40px><span class = 'large' style = 'color:red'>Incorrect</span> </p></div>",
                "internal_node_id": "0.0-21.0",
                "time_elapsed": 60724,
                "key_press": -1,
                "trial_index": 21
            },
            {
                "rt": -1,
                "trial_type": "single-stim",
                "stimulus": "<div class = imageBox><img class = image src = img/line_images/23_target_01_01.png </img></div>",
                "internal_node_id": "0.0-22.0",
                "time_elapsed": 61926,
                "key_press": -1,
                "trial_index": 22
            },
            {
                "rt": -1,
                "trial_type": "single-stim",
                "stimulus": "<div class = imageBox><img class = image src = img/Pmask2.jpg </img></div>",
                "trial_id": "mask",
                "internal_node_id": "0.0-23.0",
                "time_elapsed": 63328,
                "key_press": -1,
                "trial_index": 23
            },
            {
                "rt": -1,
                "trial_type": "single-stim",
                "stimulus": "<div class = imageBox><img class = image src = img/line_images/23_mis_01_02.png </img></div>",
                "internal_node_id": "0.0-24.0",
                "time_elapsed": 64530,
                "key_press": -1,
                "trial_index": 24
            },
            {
                "rt": -1,
                "trial_type": "single-stim",
                "stimulus": "<div class = centerbox style = text-align:center><p style = font-size:50px>Same or different? </p></div>",
                "internal_node_id": "0.0-25.0",
                "correct": true,
                "time_elapsed": 65916,
                "key_press": 49,
                "response": [
                    "same"
                ],
                "trial_index": 25
            },
            {
                "rt": -1,
                "trial_type": "single-stim",
                "stimulus": "<div class = centerbox style = text-align:center><p style = font-size:40px><span class = 'large' style = 'color:green'>Correct!</span> </p></div>",
                "internal_node_id": "0.0-26.0",
                "time_elapsed": 67419,
                "key_press": -1,
                "trial_index": 26
            },
            {
                "rt": -1,
                "trial_type": "single-stim",
                "stimulus": "<div class = imageBox><img class = image src = img/line_images/24_target_01_01.png </img></div>",
                "internal_node_id": "0.0-27.0",
                "time_elapsed": 68621,
                "key_press": -1,
                "trial_index": 27
            },
            {
                "rt": -1,
                "trial_type": "single-stim",
                "stimulus": "<div class = imageBox><img class = image src = img/Pmask3.jpg </img></div>",
                "trial_id": "mask",
                "internal_node_id": "0.0-28.0",
                "time_elapsed": 70024,
                "key_press": -1,
                "trial_index": 28
            },
            {
                "rt": -1,
                "trial_type": "single-stim",
                "stimulus": "<div class = imageBox><img class = image src = img/line_images/24_al_02_01.png </img></div>",
                "internal_node_id": "0.0-29.0",
                "time_elapsed": 71226,
                "key_press": -1,
                "trial_index": 29
            },
            {
                "rt": -1,
                "trial_type": "single-stim",
                "stimulus": "<div class = centerbox style = text-align:center><p style = font-size:50px>Same or different? </p></div>",
                "internal_node_id": "0.0-30.0",
                "correct": true,
                "time_elapsed": 72503,
                "key_press": 48,
                "response": [
                    "different"
                ],
                "trial_index": 30
            },
            {
                "rt": -1,
                "trial_type": "single-stim",
                "stimulus": "<div class = centerbox style = text-align:center><p style = font-size:40px><span class = 'large' style = 'color:green'>Correct!</span> </p></div>",
                "internal_node_id": "0.0-31.0",
                "time_elapsed": 74005,
                "key_press": -1,
                "trial_index": 31
            },
            {
                "rt": -1,
                "trial_type": "single-stim",
                "stimulus": "<div class = imageBox><img class = image src = img/line_images/22_target_01_01.png </img></div>",
                "internal_node_id": "0.0-32.0",
                "time_elapsed": 75207,
                "key_press": -1,
                "trial_index": 32
            },
            {
                "rt": -1,
                "trial_type": "single-stim",
                "stimulus": "<div class = imageBox><img class = image src = img/Pmask3.jpg </img></div>",
                "trial_id": "mask",
                "internal_node_id": "0.0-33.0",
                "time_elapsed": 76609,
                "key_press": -1,
                "trial_index": 33
            },
            {
                "rt": -1,
                "trial_type": "single-stim",
                "stimulus": "<div class = imageBox><img class = image src = img/line_images/22_al_01_01.png </img></div>",
                "internal_node_id": "0.0-34.0",
                "time_elapsed": 77811,
                "key_press": -1,
                "trial_index": 34
            },
            {
                "rt": -1,
                "trial_type": "single-stim",
                "stimulus": "<div class = centerbox style = text-align:center><p style = font-size:50px>Same or different? </p></div>",
                "internal_node_id": "0.0-35.0",
                "correct": true,
                "time_elapsed": 79091,
                "key_press": 49,
                "response": [
                    "same"
                ],
                "trial_index": 35
            },
            {
                "rt": -1,
                "trial_type": "single-stim",
                "stimulus": "<div class = centerbox style = text-align:center><p style = font-size:40px><span class = 'large' style = 'color:green'>Correct!</span> </p></div>",
                "internal_node_id": "0.0-36.0",
                "time_elapsed": 80594,
                "key_press": -1,
                "trial_index": 36
            },
            {
                "rt": -1,
                "trial_type": "single-stim",
                "stimulus": "<div class = imageBox><img class = image src = img/line_images/21_target_01_01.png </img></div>",
                "internal_node_id": "0.0-37.0",
                "time_elapsed": 81796,
                "key_press": -1,
                "trial_index": 37
            },
            {
                "rt": -1,
                "trial_type": "single-stim",
                "stimulus": "<div class = imageBox><img class = image src = img/Pmask5.jpg </img></div>",
                "trial_id": "mask",
                "internal_node_id": "0.0-38.0",
                "time_elapsed": 83198,
                "key_press": -1,
                "trial_index": 38
            },
            {
                "rt": -1,
                "trial_type": "single-stim",
                "stimulus": "<div class = imageBox><img class = image src = img/line_images/21_al_02_01.png </img></div>",
                "internal_node_id": "0.0-39.0",
                "time_elapsed": 84400,
                "key_press": -1,
                "trial_index": 39
            },
            {
                "rt": -1,
                "trial_type": "single-stim",
                "stimulus": "<div class = centerbox style = text-align:center><p style = font-size:50px>Same or different? </p></div>",
                "internal_node_id": "0.0-40.0",
                "correct": true,
                "time_elapsed": 85663,
                "key_press": 48,
                "response": [
                    "different"
                ],
                "trial_index": 40
            },
            {
                "rt": -1,
                "trial_type": "single-stim",
                "stimulus": "<div class = centerbox style = text-align:center><p style = font-size:40px><span class = 'large' style = 'color:green'>Correct!</span> </p></div>",
                "internal_node_id": "0.0-41.0",
                "time_elapsed": 87165,
                "key_press": -1,
                "trial_index": 41
            },
            {
                "rt": -1,
                "trial_type": "text",
                "internal_node_id": "0.0-42.0",
                "time_elapsed": 102048,
                "key_press": 13,
                "trial_index": 42
            },
            {
                "rt": -1,
                "trial_type": "single-stim",
                "stimulus": "<div class = imageBox><img class = image src = img/line_images/4_target_01_01.png </img></div>",
                "trial_id": "target",
                "internal_node_id": "0.0-43.0",
                "time_elapsed": 104250,
                "key_press": -1,
                "trial_index": 43
            },
            {
                "rt": -1,
                "trial_type": "single-stim",
                "stimulus": "<div class = imageBox><img class = image src = img/Pmask1.jpg </img></div>",
                "trial_id": "mask",
                "internal_node_id": "0.0-44.0",
                "time_elapsed": 105653,
                "key_press": -1,
                "trial_index": 44
            },
            {
                "rt": -1,
                "trial_type": "single-stim",
                "stimulus": "<div class = imageBox><img class = image src = img/line_images/4_mis_01_02.png </img></div>",
                "trial_id": "probe",
                "internal_node_id": "0.0-45.0",
                "time_elapsed": 106855,
                "key_press": -1,
                "trial_index": 45
            },
            {
                "rt": 256,
                "trial_type": "single-stim",
                "stimulus": "<div class = centerbox style = text-align:center><p style = font-size:50px>Same or different? </p></div>",
                "trial_id": "response_line",
                "internal_node_id": "0.0-46.0",
                "correct": true,
                "time_elapsed": 108113,
                "key_press": 49,
                "alignment": [
                    "misaligned"
                ],
                "congruency": [
                    "incongruent"
                ],
                "response": [
                    "same"
                ],
                "trial_index": 46
            },
            {
                "rt": -1,
                "trial_type": "single-stim",
                "stimulus": "<div class = imageBox><img class = image src = img/line_images/13_target_01_01.png </img></div>",
                "trial_id": "target",
                "internal_node_id": "0.0-47.0",
                "time_elapsed": 109315,
                "key_press": -1,
                "trial_index": 47
            },
            {
                "rt": -1,
                "trial_type": "single-stim",
                "stimulus": "<div class = imageBox><img class = image src = img/Pmask1.jpg </img></div>",
                "trial_id": "mask",
                "internal_node_id": "0.0-48.0",
                "time_elapsed": 110717,
                "key_press": -1,
                "trial_index": 48
            },
            {
                "rt": -1,
                "trial_type": "single-stim",
                "stimulus": "<div class = imageBox><img class = image src = img/line_images/13_al_01_01.png </img></div>",
                "trial_id": "probe",
                "internal_node_id": "0.0-49.0",
                "time_elapsed": 111919,
                "key_press": -1,
                "trial_index": 49
            },
            {
                "rt": 275,
                "trial_type": "single-stim",
                "stimulus": "<div class = centerbox style = text-align:center><p style = font-size:50px>Same or different? </p></div>",
                "trial_id": "response_line",
                "internal_node_id": "0.0-50.0",
                "correct": true,
                "time_elapsed": 113195,
                "key_press": 49,
                "alignment": [
                    "aligned"
                ],
                "congruency": [
                    "congruent"
                ],
                "response": [
                    "same"
                ],
                "trial_index": 50
            },
            {
                "rt": -1,
                "trial_type": "single-stim",
                "stimulus": "<div class = imageBox><img class = image src = img/line_images/1_target_01_01.png </img></div>",
                "trial_id": "target",
                "internal_node_id": "0.0-51.0",
                "time_elapsed": 114397,
                "key_press": -1,
                "trial_index": 51
            },
            {
                "rt": -1,
                "trial_type": "single-stim",
                "stimulus": "<div class = imageBox><img class = image src = img/Pmask3.jpg </img></div>",
                "trial_id": "mask",
                "internal_node_id": "0.0-52.0",
                "time_elapsed": 115799,
                "key_press": -1,
                "trial_index": 52
            },
            {
                "rt": -1,
                "trial_type": "single-stim",
                "stimulus": "<div class = imageBox><img class = image src = img/line_images/1_mis_02_01.png </img></div>",
                "trial_id": "probe",
                "internal_node_id": "0.0-53.0",
                "time_elapsed": 117001,
                "key_press": -1,
                "trial_index": 53
            },
            {
                "rt": 230,
                "trial_type": "single-stim",
                "stimulus": "<div class = centerbox style = text-align:center><p style = font-size:50px>Same or different? </p></div>",
                "trial_id": "response_line",
                "internal_node_id": "0.0-54.0",
                "correct": true,
                "time_elapsed": 118233,
                "key_press": 48,
                "alignment": [
                    "misaligned"
                ],
                "congruency": [
                    "incongruent"
                ],
                "response": [
                    "different"
                ],
                "trial_index": 54
            },
            {
                "rt": -1,
                "trial_type": "single-stim",
                "stimulus": "<div class = imageBox><img class = image src = img/line_images/2_target_01_01.png </img></div>",
                "trial_id": "target",
                "internal_node_id": "0.0-55.0",
                "time_elapsed": 119435,
                "key_press": -1,
                "trial_index": 55
            },
            {
                "rt": -1,
                "trial_type": "single-stim",
                "stimulus": "<div class = imageBox><img class = image src = img/Pmask1.jpg </img></div>",
                "trial_id": "mask",
                "internal_node_id": "0.0-56.0",
                "time_elapsed": 120837,
                "key_press": -1,
                "trial_index": 56
            },
            {
                "rt": -1,
                "trial_type": "single-stim",
                "stimulus": "<div class = imageBox><img class = image src = img/line_images/2_mis_01_01.png </img></div>",
                "trial_id": "probe",
                "internal_node_id": "0.0-57.0",
                "time_elapsed": 122039,
                "key_press": -1,
                "trial_index": 57
            },
            {
                "rt": 241,
                "trial_type": "single-stim",
                "stimulus": "<div class = centerbox style = text-align:center><p style = font-size:50px>Same or different? </p></div>",
                "trial_id": "response_line",
                "internal_node_id": "0.0-58.0",
                "correct": false,
                "time_elapsed": 123282,
                "key_press": 48,
                "alignment": [
                    "misaligned"
                ],
                "congruency": [
                    "congruent"
                ],
                "response": [
                    "same"
                ],
                "trial_index": 58
            },
            {
                "rt": -1,
                "trial_type": "single-stim",
                "stimulus": "<div class = imageBox><img class = image src = img/line_images/20_target_01_01.png </img></div>",
                "trial_id": "target",
                "internal_node_id": "0.0-59.0",
                "time_elapsed": 124484,
                "key_press": -1,
                "trial_index": 59
            },
            {
                "rt": -1,
                "trial_type": "single-stim",
                "stimulus": "<div class = imageBox><img class = image src = img/Pmask1.jpg </img></div>",
                "trial_id": "mask",
                "internal_node_id": "0.0-60.0",
                "time_elapsed": 125886,
                "key_press": -1,
                "trial_index": 60
            },
            {
                "rt": -1,
                "trial_type": "single-stim",
                "stimulus": "<div class = imageBox><img class = image src = img/line_images/20_al_01_02.png </img></div>",
                "trial_id": "probe",
                "internal_node_id": "0.0-61.0",
                "time_elapsed": 127088,
                "key_press": -1,
                "trial_index": 61
            },
            {
                "rt": 230,
                "trial_type": "single-stim",
                "stimulus": "<div class = centerbox style = text-align:center><p style = font-size:50px>Same or different? </p></div>",
                "trial_id": "response_line",
                "internal_node_id": "0.0-62.0",
                "correct": true,
                "time_elapsed": 128320,
                "key_press": 49,
                "alignment": [
                    "aligned"
                ],
                "congruency": [
                    "incongruent"
                ],
                "response": [
                    "same"
                ],
                "trial_index": 62
            },
            {
                "rt": -1,
                "trial_type": "single-stim",
                "stimulus": "<div class = imageBox><img class = image src = img/line_images/15_target_01_01.png </img></div>",
                "trial_id": "target",
                "internal_node_id": "0.0-63.0",
                "time_elapsed": 129522,
                "key_press": -1,
                "trial_index": 63
            },
            {
                "rt": -1,
                "trial_type": "single-stim",
                "stimulus": "<div class = imageBox><img class = image src = img/Pmask5.jpg </img></div>",
                "trial_id": "mask",
                "internal_node_id": "0.0-64.0",
                "time_elapsed": 130924,
                "key_press": -1,
                "trial_index": 64
            },
            {
                "rt": -1,
                "trial_type": "single-stim",
                "stimulus": "<div class = imageBox><img class = image src = img/line_images/15_mis_01_01.png </img></div>",
                "trial_id": "probe",
                "internal_node_id": "0.0-65.0",
                "time_elapsed": 132126,
                "key_press": -1,
                "trial_index": 65
            },
            {
                "rt": 203,
                "trial_type": "single-stim",
                "stimulus": "<div class = centerbox style = text-align:center><p style = font-size:50px>Same or different? </p></div>",
                "trial_id": "response_line",
                "internal_node_id": "0.0-66.0",
                "correct": true,
                "time_elapsed": 133330,
                "key_press": 49,
                "alignment": [
                    "misaligned"
                ],
                "congruency": [
                    "congruent"
                ],
                "response": [
                    "same"
                ],
                "trial_index": 66
            },
            {
                "rt": -1,
                "trial_type": "single-stim",
                "stimulus": "<div class = imageBox><img class = image src = img/line_images/15_target_01_01.png </img></div>",
                "trial_id": "target",
                "internal_node_id": "0.0-67.0",
                "time_elapsed": 134532,
                "key_press": -1,
                "trial_index": 67
            },
            {
                "rt": -1,
                "trial_type": "single-stim",
                "stimulus": "<div class = imageBox><img class = image src = img/Pmask1.jpg </img></div>",
                "trial_id": "mask",
                "internal_node_id": "0.0-68.0",
                "time_elapsed": 135934,
                "key_press": -1,
                "trial_index": 68
            },
            {
                "rt": -1,
                "trial_type": "single-stim",
                "stimulus": "<div class = imageBox><img class = image src = img/line_images/15_mis_02_01.png </img></div>",
                "trial_id": "probe",
                "internal_node_id": "0.0-69.0",
                "time_elapsed": 137136,
                "key_press": -1,
                "trial_index": 69
            },
            {
                "rt": 222,
                "trial_type": "single-stim",
                "stimulus": "<div class = centerbox style = text-align:center><p style = font-size:50px>Same or different? </p></div>",
                "trial_id": "response_line",
                "internal_node_id": "0.0-70.0",
                "correct": true,
                "time_elapsed": 138360,
                "key_press": 48,
                "alignment": [
                    "misaligned"
                ],
                "congruency": [
                    "incongruent"
                ],
                "response": [
                    "different"
                ],
                "trial_index": 70
            },
            {
                "rt": -1,
                "trial_type": "single-stim",
                "stimulus": "<div class = imageBox><img class = image src = img/line_images/17_target_01_01.png </img></div>",
                "trial_id": "target",
                "internal_node_id": "0.0-71.0",
                "time_elapsed": 139562,
                "key_press": -1,
                "trial_index": 71
            },
            {
                "rt": -1,
                "trial_type": "single-stim",
                "stimulus": "<div class = imageBox><img class = image src = img/Pmask2.jpg </img></div>",
                "trial_id": "mask",
                "internal_node_id": "0.0-72.0",
                "time_elapsed": 140965,
                "key_press": -1,
                "trial_index": 72
            },
            {
                "rt": -1,
                "trial_type": "single-stim",
                "stimulus": "<div class = imageBox><img class = image src = img/line_images/17_al_01_02.png </img></div>",
                "trial_id": "probe",
                "internal_node_id": "0.0-73.0",
                "time_elapsed": 142167,
                "key_press": -1,
                "trial_index": 73
            },
            {
                "rt": 218,
                "trial_type": "single-stim",
                "stimulus": "<div class = centerbox style = text-align:center><p style = font-size:50px>Same or different? </p></div>",
                "trial_id": "response_line",
                "internal_node_id": "0.0-74.0",
                "correct": false,
                "time_elapsed": 143386,
                "key_press": 48,
                "alignment": [
                    "aligned"
                ],
                "congruency": [
                    "incongruent"
                ],
                "response": [
                    "same"
                ],
                "trial_index": 74
            },
            {
                "rt": -1,
                "trial_type": "single-stim",
                "stimulus": "<div class = imageBox><img class = image src = img/line_images/14_target_01_01.png </img></div>",
                "trial_id": "target",
                "internal_node_id": "0.0-75.0",
                "time_elapsed": 144588,
                "key_press": -1,
                "trial_index": 75
            },
            {
                "rt": -1,
                "trial_type": "single-stim",
                "stimulus": "<div class = imageBox><img class = image src = img/Pmask4.jpg </img></div>",
                "trial_id": "mask",
                "internal_node_id": "0.0-76.0",
                "time_elapsed": 145990,
                "key_press": -1,
                "trial_index": 76
            },
            {
                "rt": -1,
                "trial_type": "single-stim",
                "stimulus": "<div class = imageBox><img class = image src = img/line_images/14_al_02_02.png </img></div>",
                "trial_id": "probe",
                "internal_node_id": "0.0-77.0",
                "time_elapsed": 147192,
                "key_press": -1,
                "trial_index": 77
            },
            {
                "rt": 127,
                "trial_type": "single-stim",
                "stimulus": "<div class = centerbox style = text-align:center><p style = font-size:50px>Same or different? </p></div>",
                "trial_id": "response_line",
                "internal_node_id": "0.0-78.0",
                "correct": true,
                "time_elapsed": 148320,
                "key_press": 48,
                "alignment": [
                    "aligned"
                ],
                "congruency": [
                    "congruent"
                ],
                "response": [
                    "different"
                ],
                "trial_index": 78
            },
            {
                "rt": -1,
                "trial_type": "single-stim",
                "stimulus": "<div class = imageBox><img class = image src = img/line_images/14_target_01_01.png </img></div>",
                "trial_id": "target",
                "internal_node_id": "0.0-79.0",
                "time_elapsed": 149522,
                "key_press": -1,
                "trial_index": 79
            },
            {
                "rt": -1,
                "trial_type": "single-stim",
                "stimulus": "<div class = imageBox><img class = image src = img/Pmask2.jpg </img></div>",
                "trial_id": "mask",
                "internal_node_id": "0.0-80.0",
                "time_elapsed": 150924,
                "key_press": -1,
                "trial_index": 80
            },
            {
                "rt": -1,
                "trial_type": "single-stim",
                "stimulus": "<div class = imageBox><img class = image src = img/line_images/14_mis_01_02.png </img></div>",
                "trial_id": "probe",
                "internal_node_id": "0.0-81.0",
                "time_elapsed": 152126,
                "key_press": -1,
                "trial_index": 81
            },
            {
                "rt": 248,
                "trial_type": "single-stim",
                "stimulus": "<div class = centerbox style = text-align:center><p style = font-size:50px>Same or different? </p></div>",
                "trial_id": "response_line",
                "internal_node_id": "0.0-82.0",
                "correct": true,
                "time_elapsed": 153376,
                "key_press": 49,
                "alignment": [
                    "misaligned"
                ],
                "congruency": [
                    "incongruent"
                ],
                "response": [
                    "same"
                ],
                "trial_index": 82
            },
            {
                "rt": -1,
                "trial_type": "single-stim",
                "stimulus": "<div class = imageBox><img class = image src = img/line_images/18_target_01_01.png </img></div>",
                "trial_id": "target",
                "internal_node_id": "0.0-83.0",
                "time_elapsed": 154578,
                "key_press": -1,
                "trial_index": 83
            },
            {
                "rt": -1,
                "trial_type": "single-stim",
                "stimulus": "<div class = imageBox><img class = image src = img/Pmask3.jpg </img></div>",
                "trial_id": "mask",
                "internal_node_id": "0.0-84.0",
                "time_elapsed": 155980,
                "key_press": -1,
                "trial_index": 84
            },
            {
                "rt": -1,
                "trial_type": "single-stim",
                "stimulus": "<div class = imageBox><img class = image src = img/line_images/18_mis_02_01.png </img></div>",
                "trial_id": "probe",
                "internal_node_id": "0.0-85.0",
                "time_elapsed": 157180,
                "key_press": -1,
                "trial_index": 85
            },
            {
                "rt": 187,
                "trial_type": "single-stim",
                "stimulus": "<div class = centerbox style = text-align:center><p style = font-size:50px>Same or different? </p></div>",
                "trial_id": "response_line",
                "internal_node_id": "0.0-86.0",
                "correct": true,
                "time_elapsed": 158369,
                "key_press": 48,
                "alignment": [
                    "misaligned"
                ],
                "congruency": [
                    "incongruent"
                ],
                "response": [
                    "different"
                ],
                "trial_index": 86
            },
            {
                "rt": -1,
                "trial_type": "single-stim",
                "stimulus": "<div class = imageBox><img class = image src = img/line_images/13_target_01_01.png </img></div>",
                "trial_id": "target",
                "internal_node_id": "0.0-87.0",
                "time_elapsed": 159571,
                "key_press": -1,
                "trial_index": 87
            },
            {
                "rt": -1,
                "trial_type": "single-stim",
                "stimulus": "<div class = imageBox><img class = image src = img/Pmask1.jpg </img></div>",
                "trial_id": "mask",
                "internal_node_id": "0.0-88.0",
                "time_elapsed": 160973,
                "key_press": -1,
                "trial_index": 88
            },
            {
                "rt": -1,
                "trial_type": "single-stim",
                "stimulus": "<div class = imageBox><img class = image src = img/line_images/13_al_02_02.png </img></div>",
                "trial_id": "probe",
                "internal_node_id": "0.0-89.0",
                "time_elapsed": 162175,
                "key_press": -1,
                "trial_index": 89
            },
            {
                "rt": 205,
                "trial_type": "single-stim",
                "stimulus": "<div class = centerbox style = text-align:center><p style = font-size:50px>Same or different? </p></div>",
                "trial_id": "response_line",
                "internal_node_id": "0.0-90.0",
                "correct": true,
                "time_elapsed": 163381,
                "key_press": 48,
                "alignment": [
                    "aligned"
                ],
                "congruency": [
                    "congruent"
                ],
                "response": [
                    "different"
                ],
                "trial_index": 90
            },
            {
                "rt": -1,
                "trial_type": "single-stim",
                "stimulus": "<div class = imageBox><img class = image src = img/line_images/8_target_01_01.png </img></div>",
                "trial_id": "target",
                "internal_node_id": "0.0-91.0",
                "time_elapsed": 164583,
                "key_press": -1,
                "trial_index": 91
            },
            {
                "rt": -1,
                "trial_type": "single-stim",
                "stimulus": "<div class = imageBox><img class = image src = img/Pmask1.jpg </img></div>",
                "trial_id": "mask",
                "internal_node_id": "0.0-92.0",
                "time_elapsed": 165985,
                "key_press": -1,
                "trial_index": 92
            },
            {
                "rt": -1,
                "trial_type": "single-stim",
                "stimulus": "<div class = imageBox><img class = image src = img/line_images/8_mis_02_01.png </img></div>",
                "trial_id": "probe",
                "internal_node_id": "0.0-93.0",
                "time_elapsed": 167187,
                "key_press": -1,
                "trial_index": 93
            },
            {
                "rt": 243,
                "trial_type": "single-stim",
                "stimulus": "<div class = centerbox style = text-align:center><p style = font-size:50px>Same or different? </p></div>",
                "trial_id": "response_line",
                "internal_node_id": "0.0-94.0",
                "correct": true,
                "time_elapsed": 168432,
                "key_press": 48,
                "alignment": [
                    "misaligned"
                ],
                "congruency": [
                    "incongruent"
                ],
                "response": [
                    "different"
                ],
                "trial_index": 94
            },
            {
                "rt": -1,
                "trial_type": "single-stim",
                "stimulus": "<div class = imageBox><img class = image src = img/line_images/10_target_01_01.png </img></div>",
                "trial_id": "target",
                "internal_node_id": "0.0-95.0",
                "time_elapsed": 169634,
                "key_press": -1,
                "trial_index": 95
            },
            {
                "rt": -1,
                "trial_type": "single-stim",
                "stimulus": "<div class = imageBox><img class = image src = img/Pmask5.jpg </img></div>",
                "trial_id": "mask",
                "internal_node_id": "0.0-96.0",
                "time_elapsed": 171036,
                "key_press": -1,
                "trial_index": 96
            },
            {
                "rt": -1,
                "trial_type": "single-stim",
                "stimulus": "<div class = imageBox><img class = image src = img/line_images/10_al_01_01.png </img></div>",
                "trial_id": "probe",
                "internal_node_id": "0.0-97.0",
                "time_elapsed": 172239,
                "key_press": -1,
                "trial_index": 97
            },
            {
                "rt": 220,
                "trial_type": "single-stim",
                "stimulus": "<div class = centerbox style = text-align:center><p style = font-size:50px>Same or different? </p></div>",
                "trial_id": "response_line",
                "internal_node_id": "0.0-98.0",
                "correct": true,
                "time_elapsed": 173461,
                "key_press": 49,
                "alignment": [
                    "aligned"
                ],
                "congruency": [
                    "congruent"
                ],
                "response": [
                    "same"
                ],
                "trial_index": 98
            },
            {
                "rt": -1,
                "trial_type": "single-stim",
                "stimulus": "<div class = imageBox><img class = image src = img/line_images/10_target_01_01.png </img></div>",
                "trial_id": "target",
                "internal_node_id": "0.0-99.0",
                "time_elapsed": 174664,
                "key_press": -1,
                "trial_index": 99
            },
            {
                "rt": -1,
                "trial_type": "single-stim",
                "stimulus": "<div class = imageBox><img class = image src = img/Pmask2.jpg </img></div>",
                "trial_id": "mask",
                "internal_node_id": "0.0-100.0",
                "time_elapsed": 176066,
                "key_press": -1,
                "trial_index": 100
            },
            {
                "rt": -1,
                "trial_type": "single-stim",
                "stimulus": "<div class = imageBox><img class = image src = img/line_images/10_mis_01_02.png </img></div>",
                "trial_id": "probe",
                "internal_node_id": "0.0-101.0",
                "time_elapsed": 177268,
                "key_press": -1,
                "trial_index": 101
            },
            {
                "rt": 210,
                "trial_type": "single-stim",
                "stimulus": "<div class = centerbox style = text-align:center><p style = font-size:50px>Same or different? </p></div>",
                "trial_id": "response_line",
                "internal_node_id": "0.0-102.0",
                "correct": true,
                "time_elapsed": 178479,
                "key_press": 49,
                "alignment": [
                    "misaligned"
                ],
                "congruency": [
                    "incongruent"
                ],
                "response": [
                    "same"
                ],
                "trial_index": 102
            },
            {
                "rt": -1,
                "trial_type": "single-stim",
                "stimulus": "<div class = imageBox><img class = image src = img/line_images/2_target_01_01.png </img></div>",
                "trial_id": "target",
                "internal_node_id": "0.0-103.0",
                "time_elapsed": 179681,
                "key_press": -1,
                "trial_index": 103
            },
            {
                "rt": -1,
                "trial_type": "single-stim",
                "stimulus": "<div class = imageBox><img class = image src = img/Pmask1.jpg </img></div>",
                "trial_id": "mask",
                "internal_node_id": "0.0-104.0",
                "time_elapsed": 181083,
                "key_press": -1,
                "trial_index": 104
            },
            {
                "rt": -1,
                "trial_type": "single-stim",
                "stimulus": "<div class = imageBox><img class = image src = img/line_images/2_mis_01_02.png </img></div>",
                "trial_id": "probe",
                "internal_node_id": "0.0-105.0",
                "time_elapsed": 182285,
                "key_press": -1,
                "trial_index": 105
            },
            {
                "rt": 230,
                "trial_type": "single-stim",
                "stimulus": "<div class = centerbox style = text-align:center><p style = font-size:50px>Same or different? </p></div>",
                "trial_id": "response_line",
                "internal_node_id": "0.0-106.0",
                "correct": true,
                "time_elapsed": 183517,
                "key_press": 49,
                "alignment": [
                    "misaligned"
                ],
                "congruency": [
                    "incongruent"
                ],
                "response": [
                    "same"
                ],
                "trial_index": 106
            },
            {
                "rt": -1,
                "trial_type": "single-stim",
                "stimulus": "<div class = imageBox><img class = image src = img/line_images/11_target_01_01.png </img></div>",
                "trial_id": "target",
                "internal_node_id": "0.0-107.0",
                "time_elapsed": 184719,
                "key_press": -1,
                "trial_index": 107
            },
            {
                "rt": -1,
                "trial_type": "single-stim",
                "stimulus": "<div class = imageBox><img class = image src = img/Pmask3.jpg </img></div>",
                "trial_id": "mask",
                "internal_node_id": "0.0-108.0",
                "time_elapsed": 186121,
                "key_press": -1,
                "trial_index": 108
            },
            {
                "rt": -1,
                "trial_type": "single-stim",
                "stimulus": "<div class = imageBox><img class = image src = img/line_images/11_mis_02_01.png </img></div>",
                "trial_id": "probe",
                "internal_node_id": "0.0-109.0",
                "time_elapsed": 187323,
                "key_press": -1,
                "trial_index": 109
            },
            {
                "rt": 162,
                "trial_type": "single-stim",
                "stimulus": "<div class = centerbox style = text-align:center><p style = font-size:50px>Same or different? </p></div>",
                "trial_id": "response_line",
                "internal_node_id": "0.0-110.0",
                "correct": true,
                "time_elapsed": 188486,
                "key_press": 48,
                "alignment": [
                    "misaligned"
                ],
                "congruency": [
                    "incongruent"
                ],
                "response": [
                    "different"
                ],
                "trial_index": 110
            },
            {
                "rt": -1,
                "trial_type": "single-stim",
                "stimulus": "<div class = imageBox><img class = image src = img/line_images/14_target_01_01.png </img></div>",
                "trial_id": "target",
                "internal_node_id": "0.0-111.0",
                "time_elapsed": 189688,
                "key_press": -1,
                "trial_index": 111
            },
            {
                "rt": -1,
                "trial_type": "single-stim",
                "stimulus": "<div class = imageBox><img class = image src = img/Pmask1.jpg </img></div>",
                "trial_id": "mask",
                "internal_node_id": "0.0-112.0",
                "time_elapsed": 191090,
                "key_press": -1,
                "trial_index": 112
            },
            {
                "rt": -1,
                "trial_type": "single-stim",
                "stimulus": "<div class = imageBox><img class = image src = img/line_images/14_mis_02_02.png </img></div>",
                "trial_id": "probe",
                "internal_node_id": "0.0-113.0",
                "time_elapsed": 192293,
                "key_press": -1,
                "trial_index": 113
            },
            {
                "rt": 207,
                "trial_type": "single-stim",
                "stimulus": "<div class = centerbox style = text-align:center><p style = font-size:50px>Same or different? </p></div>",
                "trial_id": "response_line",
                "internal_node_id": "0.0-114.0",
                "correct": false,
                "time_elapsed": 193502,
                "key_press": 49,
                "alignment": [
                    "misaligned"
                ],
                "congruency": [
                    "congruent"
                ],
                "response": [
                    "different"
                ],
                "trial_index": 114
            },
            {
                "rt": -1,
                "trial_type": "single-stim",
                "stimulus": "<div class = imageBox><img class = image src = img/line_images/3_target_01_01.png </img></div>",
                "trial_id": "target",
                "internal_node_id": "0.0-115.0",
                "time_elapsed": 194704,
                "key_press": -1,
                "trial_index": 115
            },
            {
                "rt": -1,
                "trial_type": "single-stim",
                "stimulus": "<div class = imageBox><img class = image src = img/Pmask1.jpg </img></div>",
                "trial_id": "mask",
                "internal_node_id": "0.0-116.0",
                "time_elapsed": 196106,
                "key_press": -1,
                "trial_index": 116
            },
            {
                "rt": -1,
                "trial_type": "single-stim",
                "stimulus": "<div class = imageBox><img class = image src = img/line_images/3_mis_02_01.png </img></div>",
                "trial_id": "probe",
                "internal_node_id": "0.0-117.0",
                "time_elapsed": 197308,
                "key_press": -1,
                "trial_index": 117
            },
            {
                "rt": 175,
                "trial_type": "single-stim",
                "stimulus": "<div class = centerbox style = text-align:center><p style = font-size:50px>Same or different? </p></div>",
                "trial_id": "response_line",
                "internal_node_id": "0.0-118.0",
                "correct": true,
                "time_elapsed": 198485,
                "key_press": 48,
                "alignment": [
                    "misaligned"
                ],
                "congruency": [
                    "incongruent"
                ],
                "response": [
                    "different"
                ],
                "trial_index": 118
            },
            {
                "rt": -1,
                "trial_type": "single-stim",
                "stimulus": "<div class = imageBox><img class = image src = img/line_images/3_target_01_01.png </img></div>",
                "trial_id": "target",
                "internal_node_id": "0.0-119.0",
                "time_elapsed": 199687,
                "key_press": -1,
                "trial_index": 119
            },
            {
                "rt": -1,
                "trial_type": "single-stim",
                "stimulus": "<div class = imageBox><img class = image src = img/Pmask2.jpg </img></div>",
                "trial_id": "mask",
                "internal_node_id": "0.0-120.0",
                "time_elapsed": 201089,
                "key_press": -1,
                "trial_index": 120
            },
            {
                "rt": -1,
                "trial_type": "single-stim",
                "stimulus": "<div class = imageBox><img class = image src = img/line_images/3_al_01_01.png </img></div>",
                "trial_id": "probe",
                "internal_node_id": "0.0-121.0",
                "time_elapsed": 202291,
                "key_press": -1,
                "trial_index": 121
            },
            {
                "rt": 84,
                "trial_type": "single-stim",
                "stimulus": "<div class = centerbox style = text-align:center><p style = font-size:50px>Same or different? </p></div>",
                "trial_id": "response_line",
                "internal_node_id": "0.0-122.0",
                "correct": true,
                "time_elapsed": 203376,
                "key_press": 49,
                "alignment": [
                    "aligned"
                ],
                "congruency": [
                    "congruent"
                ],
                "response": [
                    "same"
                ],
                "trial_index": 122
            },
            {
                "rt": -1,
                "trial_type": "single-stim",
                "stimulus": "<div class = imageBox><img class = image src = img/line_images/2_target_01_01.png </img></div>",
                "trial_id": "target",
                "internal_node_id": "0.0-123.0",
                "time_elapsed": 204579,
                "key_press": -1,
                "trial_index": 123
            },
            {
                "rt": -1,
                "trial_type": "single-stim",
                "stimulus": "<div class = imageBox><img class = image src = img/Pmask1.jpg </img></div>",
                "trial_id": "mask",
                "internal_node_id": "0.0-124.0",
                "time_elapsed": 205981,
                "key_press": -1,
                "trial_index": 124
            },
            {
                "rt": -1,
                "trial_type": "single-stim",
                "stimulus": "<div class = imageBox><img class = image src = img/line_images/2_al_02_02.png </img></div>",
                "trial_id": "probe",
                "internal_node_id": "0.0-125.0",
                "time_elapsed": 207183,
                "key_press": -1,
                "trial_index": 125
            },
            {
                "rt": 140,
                "trial_type": "single-stim",
                "stimulus": "<div class = centerbox style = text-align:center><p style = font-size:50px>Same or different? </p></div>",
                "trial_id": "response_line",
                "internal_node_id": "0.0-126.0",
                "correct": true,
                "time_elapsed": 208324,
                "key_press": 48,
                "alignment": [
                    "aligned"
                ],
                "congruency": [
                    "congruent"
                ],
                "response": [
                    "different"
                ],
                "trial_index": 126
            },
            {
                "rt": -1,
                "trial_type": "single-stim",
                "stimulus": "<div class = imageBox><img class = image src = img/line_images/11_target_01_01.png </img></div>",
                "trial_id": "target",
                "internal_node_id": "0.0-127.0",
                "time_elapsed": 209526,
                "key_press": -1,
                "trial_index": 127
            },
            {
                "rt": -1,
                "trial_type": "single-stim",
                "stimulus": "<div class = imageBox><img class = image src = img/Pmask1.jpg </img></div>",
                "trial_id": "mask",
                "internal_node_id": "0.0-128.0",
                "time_elapsed": 210929,
                "key_press": -1,
                "trial_index": 128
            },
            {
                "rt": -1,
                "trial_type": "single-stim",
                "stimulus": "<div class = imageBox><img class = image src = img/line_images/11_al_02_02.png </img></div>",
                "trial_id": "probe",
                "internal_node_id": "0.0-129.0",
                "time_elapsed": 212131,
                "key_press": -1,
                "trial_index": 129
            },
            {
                "rt": 88,
                "trial_type": "single-stim",
                "stimulus": "<div class = centerbox style = text-align:center><p style = font-size:50px>Same or different? </p></div>",
                "trial_id": "response_line",
                "internal_node_id": "0.0-130.0",
                "correct": true,
                "time_elapsed": 213221,
                "key_press": 48,
                "alignment": [
                    "aligned"
                ],
                "congruency": [
                    "congruent"
                ],
                "response": [
                    "different"
                ],
                "trial_index": 130
            },
            {
                "rt": -1,
                "trial_type": "single-stim",
                "stimulus": "<div class = imageBox><img class = image src = img/line_images/13_target_01_01.png </img></div>",
                "trial_id": "target",
                "internal_node_id": "0.0-131.0",
                "time_elapsed": 214423,
                "key_press": -1,
                "trial_index": 131
            },
            {
                "rt": -1,
                "trial_type": "single-stim",
                "stimulus": "<div class = imageBox><img class = image src = img/Pmask4.jpg </img></div>",
                "trial_id": "mask",
                "internal_node_id": "0.0-132.0",
                "time_elapsed": 215825,
                "key_press": -1,
                "trial_index": 132
            },
            {
                "rt": -1,
                "trial_type": "single-stim",
                "stimulus": "<div class = imageBox><img class = image src = img/line_images/13_mis_02_01.png </img></div>",
                "trial_id": "probe",
                "internal_node_id": "0.0-133.0",
                "time_elapsed": 217023,
                "key_press": -1,
                "trial_index": 133
            },
            {
                "rt": 211,
                "trial_type": "single-stim",
                "stimulus": "<div class = centerbox style = text-align:center><p style = font-size:50px>Same or different? </p></div>",
                "trial_id": "response_line",
                "internal_node_id": "0.0-134.0",
                "correct": true,
                "time_elapsed": 218236,
                "key_press": 48,
                "alignment": [
                    "misaligned"
                ],
                "congruency": [
                    "incongruent"
                ],
                "response": [
                    "different"
                ],
                "trial_index": 134
            },
            {
                "rt": -1,
                "trial_type": "single-stim",
                "stimulus": "<div class = imageBox><img class = image src = img/line_images/3_target_01_01.png </img></div>",
                "trial_id": "target",
                "internal_node_id": "0.0-135.0",
                "time_elapsed": 219438,
                "key_press": -1,
                "trial_index": 135
            },
            {
                "rt": -1,
                "trial_type": "single-stim",
                "stimulus": "<div class = imageBox><img class = image src = img/Pmask1.jpg </img></div>",
                "trial_id": "mask",
                "internal_node_id": "0.0-136.0",
                "time_elapsed": 220840,
                "key_press": -1,
                "trial_index": 136
            },
            {
                "rt": -1,
                "trial_type": "single-stim",
                "stimulus": "<div class = imageBox><img class = image src = img/line_images/3_mis_02_02.png </img></div>",
                "trial_id": "probe",
                "internal_node_id": "0.0-137.0",
                "time_elapsed": 222042,
                "key_press": -1,
                "trial_index": 137
            },
            {
                "rt": 100,
                "trial_type": "single-stim",
                "stimulus": "<div class = centerbox style = text-align:center><p style = font-size:50px>Same or different? </p></div>",
                "trial_id": "response_line",
                "internal_node_id": "0.0-138.0",
                "correct": false,
                "time_elapsed": 223144,
                "key_press": 49,
                "alignment": [
                    "misaligned"
                ],
                "congruency": [
                    "congruent"
                ],
                "response": [
                    "different"
                ],
                "trial_index": 138
            },
            {
                "rt": -1,
                "trial_type": "single-stim",
                "stimulus": "<div class = imageBox><img class = image src = img/line_images/14_target_01_01.png </img></div>",
                "trial_id": "target",
                "internal_node_id": "0.0-139.0",
                "time_elapsed": 224346,
                "key_press": -1,
                "trial_index": 139
            },
            {
                "rt": -1,
                "trial_type": "single-stim",
                "stimulus": "<div class = imageBox><img class = image src = img/Pmask5.jpg </img></div>",
                "trial_id": "mask",
                "internal_node_id": "0.0-140.0",
                "time_elapsed": 225748,
                "key_press": -1,
                "trial_index": 140
            },
            {
                "rt": -1,
                "trial_type": "single-stim",
                "stimulus": "<div class = imageBox><img class = image src = img/line_images/14_al_02_01.png </img></div>",
                "trial_id": "probe",
                "internal_node_id": "0.0-141.0",
                "time_elapsed": 226951,
                "key_press": -1,
                "trial_index": 141
            },
            {
                "rt": 231,
                "trial_type": "single-stim",
                "stimulus": "<div class = centerbox style = text-align:center><p style = font-size:50px>Same or different? </p></div>",
                "trial_id": "response_line",
                "internal_node_id": "0.0-142.0",
                "correct": false,
                "time_elapsed": 228185,
                "key_press": 49,
                "alignment": [
                    "aligned"
                ],
                "congruency": [
                    "incongruent"
                ],
                "response": [
                    "different"
                ],
                "trial_index": 142
            },
            {
                "rt": -1,
                "trial_type": "single-stim",
                "stimulus": "<div class = imageBox><img class = image src = img/line_images/10_target_01_01.png </img></div>",
                "trial_id": "target",
                "internal_node_id": "0.0-143.0",
                "time_elapsed": 229387,
                "key_press": -1,
                "trial_index": 143
            },
            {
                "rt": -1,
                "trial_type": "single-stim",
                "stimulus": "<div class = imageBox><img class = image src = img/Pmask3.jpg </img></div>",
                "trial_id": "mask",
                "internal_node_id": "0.0-144.0",
                "time_elapsed": 230789,
                "key_press": -1,
                "trial_index": 144
            },
            {
                "rt": -1,
                "trial_type": "single-stim",
                "stimulus": "<div class = imageBox><img class = image src = img/line_images/10_mis_02_02.png </img></div>",
                "trial_id": "probe",
                "internal_node_id": "0.0-145.0",
                "time_elapsed": 231991,
                "key_press": -1,
                "trial_index": 145
            },
            {
                "rt": 179,
                "trial_type": "single-stim",
                "stimulus": "<div class = centerbox style = text-align:center><p style = font-size:50px>Same or different? </p></div>",
                "trial_id": "response_line",
                "internal_node_id": "0.0-146.0",
                "correct": true,
                "time_elapsed": 233171,
                "key_press": 48,
                "alignment": [
                    "misaligned"
                ],
                "congruency": [
                    "congruent"
                ],
                "response": [
                    "different"
                ],
                "trial_index": 146
            },
            {
                "rt": -1,
                "trial_type": "single-stim",
                "stimulus": "<div class = imageBox><img class = image src = img/line_images/4_target_01_01.png </img></div>",
                "trial_id": "target",
                "internal_node_id": "0.0-147.0",
                "time_elapsed": 234373,
                "key_press": -1,
                "trial_index": 147
            },
            {
                "rt": -1,
                "trial_type": "single-stim",
                "stimulus": "<div class = imageBox><img class = image src = img/Pmask2.jpg </img></div>",
                "trial_id": "mask",
                "internal_node_id": "0.0-148.0",
                "time_elapsed": 235775,
                "key_press": -1,
                "trial_index": 148
            },
            {
                "rt": -1,
                "trial_type": "single-stim",
                "stimulus": "<div class = imageBox><img class = image src = img/line_images/4_mis_02_01.png </img></div>",
                "trial_id": "probe",
                "internal_node_id": "0.0-149.0",
                "time_elapsed": 236977,
                "key_press": -1,
                "trial_index": 149
            },
            {
                "rt": 118,
                "trial_type": "single-stim",
                "stimulus": "<div class = centerbox style = text-align:center><p style = font-size:50px>Same or different? </p></div>",
                "trial_id": "response_line",
                "internal_node_id": "0.0-150.0",
                "correct": true,
                "time_elapsed": 238096,
                "key_press": 48,
                "alignment": [
                    "misaligned"
                ],
                "congruency": [
                    "incongruent"
                ],
                "response": [
                    "different"
                ],
                "trial_index": 150
            },
            {
                "rt": -1,
                "trial_type": "single-stim",
                "stimulus": "<div class = imageBox><img class = image src = img/line_images/5_target_01_01.png </img></div>",
                "trial_id": "target",
                "internal_node_id": "0.0-151.0",
                "time_elapsed": 239299,
                "key_press": -1,
                "trial_index": 151
            },
            {
                "rt": -1,
                "trial_type": "single-stim",
                "stimulus": "<div class = imageBox><img class = image src = img/Pmask5.jpg </img></div>",
                "trial_id": "mask",
                "internal_node_id": "0.0-152.0",
                "time_elapsed": 240701,
                "key_press": -1,
                "trial_index": 152
            },
            {
                "rt": -1,
                "trial_type": "single-stim",
                "stimulus": "<div class = imageBox><img class = image src = img/line_images/5_al_01_01.png </img></div>",
                "trial_id": "probe",
                "internal_node_id": "0.0-153.0",
                "time_elapsed": 241903,
                "key_press": -1,
                "trial_index": 153
            },
            {
                "rt": 183,
                "trial_type": "single-stim",
                "stimulus": "<div class = centerbox style = text-align:center><p style = font-size:50px>Same or different? </p></div>",
                "trial_id": "response_line",
                "internal_node_id": "0.0-154.0",
                "correct": true,
                "time_elapsed": 243088,
                "key_press": 49,
                "alignment": [
                    "aligned"
                ],
                "congruency": [
                    "congruent"
                ],
                "response": [
                    "same"
                ],
                "trial_index": 154
            },
            {
                "rt": -1,
                "trial_type": "single-stim",
                "stimulus": "<div class = imageBox><img class = image src = img/line_images/12_target_01_01.png </img></div>",
                "trial_id": "target",
                "internal_node_id": "0.0-155.0",
                "time_elapsed": 244290,
                "key_press": -1,
                "trial_index": 155
            },
            {
                "rt": -1,
                "trial_type": "single-stim",
                "stimulus": "<div class = imageBox><img class = image src = img/Pmask5.jpg </img></div>",
                "trial_id": "mask",
                "internal_node_id": "0.0-156.0",
                "time_elapsed": 245693,
                "key_press": -1,
                "trial_index": 156
            },
            {
                "rt": -1,
                "trial_type": "single-stim",
                "stimulus": "<div class = imageBox><img class = image src = img/line_images/12_al_01_02.png </img></div>",
                "trial_id": "probe",
                "internal_node_id": "0.0-157.0",
                "time_elapsed": 246895,
                "key_press": -1,
                "trial_index": 157
            },
            {
                "rt": 122,
                "trial_type": "single-stim",
                "stimulus": "<div class = centerbox style = text-align:center><p style = font-size:50px>Same or different? </p></div>",
                "trial_id": "response_line",
                "internal_node_id": "0.0-158.0",
                "correct": true,
                "time_elapsed": 248018,
                "key_press": 49,
                "alignment": [
                    "aligned"
                ],
                "congruency": [
                    "incongruent"
                ],
                "response": [
                    "same"
                ],
                "trial_index": 158
            },
            {
                "rt": -1,
                "trial_type": "single-stim",
                "stimulus": "<div class = imageBox><img class = image src = img/line_images/15_target_01_01.png </img></div>",
                "trial_id": "target",
                "internal_node_id": "0.0-159.0",
                "time_elapsed": 249220,
                "key_press": -1,
                "trial_index": 159
            },
            {
                "rt": -1,
                "trial_type": "single-stim",
                "stimulus": "<div class = imageBox><img class = image src = img/Pmask5.jpg </img></div>",
                "trial_id": "mask",
                "internal_node_id": "0.0-160.0",
                "time_elapsed": 250622,
                "key_press": -1,
                "trial_index": 160
            },
            {
                "rt": -1,
                "trial_type": "single-stim",
                "stimulus": "<div class = imageBox><img class = image src = img/line_images/15_al_01_02.png </img></div>",
                "trial_id": "probe",
                "internal_node_id": "0.0-161.0",
                "time_elapsed": 251824,
                "key_press": -1,
                "trial_index": 161
            },
            {
                "rt": 71,
                "trial_type": "single-stim",
                "stimulus": "<div class = centerbox style = text-align:center><p style = font-size:50px>Same or different? </p></div>",
                "trial_id": "response_line",
                "internal_node_id": "0.0-162.0",
                "correct": true,
                "time_elapsed": 252896,
                "key_press": 49,
                "alignment": [
                    "aligned"
                ],
                "congruency": [
                    "incongruent"
                ],
                "response": [
                    "same"
                ],
                "trial_index": 162
            },
            {
                "rt": -1,
                "trial_type": "single-stim",
                "stimulus": "<div class = imageBox><img class = image src = img/line_images/10_target_01_01.png </img></div>",
                "trial_id": "target",
                "internal_node_id": "0.0-163.0",
                "time_elapsed": 254098,
                "key_press": -1,
                "trial_index": 163
            },
            {
                "rt": -1,
                "trial_type": "single-stim",
                "stimulus": "<div class = imageBox><img class = image src = img/Pmask4.jpg </img></div>",
                "trial_id": "mask",
                "internal_node_id": "0.0-164.0",
                "time_elapsed": 255500,
                "key_press": -1,
                "trial_index": 164
            },
            {
                "rt": -1,
                "trial_type": "single-stim",
                "stimulus": "<div class = imageBox><img class = image src = img/line_images/10_al_01_02.png </img></div>",
                "trial_id": "probe",
                "internal_node_id": "0.0-165.0",
                "time_elapsed": 256702,
                "key_press": -1,
                "trial_index": 165
            },
            {
                "rt": 264,
                "trial_type": "single-stim",
                "stimulus": "<div class = centerbox style = text-align:center><p style = font-size:50px>Same or different? </p></div>",
                "trial_id": "response_line",
                "internal_node_id": "0.0-166.0",
                "correct": true,
                "time_elapsed": 257968,
                "key_press": 49,
                "alignment": [
                    "aligned"
                ],
                "congruency": [
                    "incongruent"
                ],
                "response": [
                    "same"
                ],
                "trial_index": 166
            },
            {
                "rt": -1,
                "trial_type": "single-stim",
                "stimulus": "<div class = imageBox><img class = image src = img/line_images/8_target_01_01.png </img></div>",
                "trial_id": "target",
                "internal_node_id": "0.0-167.0",
                "time_elapsed": 259170,
                "key_press": -1,
                "trial_index": 167
            },
            {
                "rt": -1,
                "trial_type": "single-stim",
                "stimulus": "<div class = imageBox><img class = image src = img/Pmask3.jpg </img></div>",
                "trial_id": "mask",
                "internal_node_id": "0.0-168.0",
                "time_elapsed": 260572,
                "key_press": -1,
                "trial_index": 168
            },
            {
                "rt": -1,
                "trial_type": "single-stim",
                "stimulus": "<div class = imageBox><img class = image src = img/line_images/8_al_02_02.png </img></div>",
                "trial_id": "probe",
                "internal_node_id": "0.0-169.0",
                "time_elapsed": 261774,
                "key_press": -1,
                "trial_index": 169
            },
            {
                "rt": 298,
                "trial_type": "single-stim",
                "stimulus": "<div class = centerbox style = text-align:center><p style = font-size:50px>Same or different? </p></div>",
                "trial_id": "response_line",
                "internal_node_id": "0.0-170.0",
                "correct": true,
                "time_elapsed": 263075,
                "key_press": 48,
                "alignment": [
                    "aligned"
                ],
                "congruency": [
                    "congruent"
                ],
                "response": [
                    "different"
                ],
                "trial_index": 170
            },
            {
                "rt": -1,
                "trial_type": "single-stim",
                "stimulus": "<div class = imageBox><img class = image src = img/line_images/5_target_01_01.png </img></div>",
                "trial_id": "target",
                "internal_node_id": "0.0-171.0",
                "time_elapsed": 264277,
                "key_press": -1,
                "trial_index": 171
            },
            {
                "rt": -1,
                "trial_type": "single-stim",
                "stimulus": "<div class = imageBox><img class = image src = img/Pmask2.jpg </img></div>",
                "trial_id": "mask",
                "internal_node_id": "0.0-172.0",
                "time_elapsed": 265679,
                "key_press": -1,
                "trial_index": 172
            },
            {
                "rt": -1,
                "trial_type": "single-stim",
                "stimulus": "<div class = imageBox><img class = image src = img/line_images/5_al_02_01.png </img></div>",
                "trial_id": "probe",
                "internal_node_id": "0.0-173.0",
                "time_elapsed": 266881,
                "key_press": -1,
                "trial_index": 173
            },
            {
                "rt": 230,
                "trial_type": "single-stim",
                "stimulus": "<div class = centerbox style = text-align:center><p style = font-size:50px>Same or different? </p></div>",
                "trial_id": "response_line",
                "internal_node_id": "0.0-174.0",
                "correct": true,
                "time_elapsed": 268112,
                "key_press": 48,
                "alignment": [
                    "aligned"
                ],
                "congruency": [
                    "incongruent"
                ],
                "response": [
                    "different"
                ],
                "trial_index": 174
            },
            {
                "rt": -1,
                "trial_type": "single-stim",
                "stimulus": "<div class = imageBox><img class = image src = img/line_images/20_target_01_01.png </img></div>",
                "trial_id": "target",
                "internal_node_id": "0.0-175.0",
                "time_elapsed": 269314,
                "key_press": -1,
                "trial_index": 175
            },
            {
                "rt": -1,
                "trial_type": "single-stim",
                "stimulus": "<div class = imageBox><img class = image src = img/Pmask1.jpg </img></div>",
                "trial_id": "mask",
                "internal_node_id": "0.0-176.0",
                "time_elapsed": 270718,
                "key_press": -1,
                "trial_index": 176
            },
            {
                "rt": -1,
                "trial_type": "single-stim",
                "stimulus": "<div class = imageBox><img class = image src = img/line_images/20_al_02_01.png </img></div>",
                "trial_id": "probe",
                "internal_node_id": "0.0-177.0",
                "time_elapsed": 271920,
                "key_press": -1,
                "trial_index": 177
            },
            {
                "rt": 256,
                "trial_type": "single-stim",
                "stimulus": "<div class = centerbox style = text-align:center><p style = font-size:50px>Same or different? </p></div>",
                "trial_id": "response_line",
                "internal_node_id": "0.0-178.0",
                "correct": true,
                "time_elapsed": 273178,
                "key_press": 48,
                "alignment": [
                    "aligned"
                ],
                "congruency": [
                    "incongruent"
                ],
                "response": [
                    "different"
                ],
                "trial_index": 178
            },
            {
                "rt": -1,
                "trial_type": "single-stim",
                "stimulus": "<div class = imageBox><img class = image src = img/line_images/7_target_01_01.png </img></div>",
                "trial_id": "target",
                "internal_node_id": "0.0-179.0",
                "time_elapsed": 274380,
                "key_press": -1,
                "trial_index": 179
            },
            {
                "rt": -1,
                "trial_type": "single-stim",
                "stimulus": "<div class = imageBox><img class = image src = img/Pmask3.jpg </img></div>",
                "trial_id": "mask",
                "internal_node_id": "0.0-180.0",
                "time_elapsed": 275782,
                "key_press": -1,
                "trial_index": 180
            },
            {
                "rt": -1,
                "trial_type": "single-stim",
                "stimulus": "<div class = imageBox><img class = image src = img/line_images/7_al_02_02.png </img></div>",
                "trial_id": "probe",
                "internal_node_id": "0.0-181.0",
                "time_elapsed": 276984,
                "key_press": -1,
                "trial_index": 181
            },
            {
                "rt": 206,
                "trial_type": "single-stim",
                "stimulus": "<div class = centerbox style = text-align:center><p style = font-size:50px>Same or different? </p></div>",
                "trial_id": "response_line",
                "internal_node_id": "0.0-182.0",
                "correct": true,
                "time_elapsed": 278188,
                "key_press": 48,
                "alignment": [
                    "aligned"
                ],
                "congruency": [
                    "congruent"
                ],
                "response": [
                    "different"
                ],
                "trial_index": 182
            },
            {
                "rt": -1,
                "trial_type": "single-stim",
                "stimulus": "<div class = imageBox><img class = image src = img/line_images/15_target_01_01.png </img></div>",
                "trial_id": "target",
                "internal_node_id": "0.0-183.0",
                "time_elapsed": 279390,
                "key_press": -1,
                "trial_index": 183
            },
            {
                "rt": -1,
                "trial_type": "single-stim",
                "stimulus": "<div class = imageBox><img class = image src = img/Pmask5.jpg </img></div>",
                "trial_id": "mask",
                "internal_node_id": "0.0-184.0",
                "time_elapsed": 280793,
                "key_press": -1,
                "trial_index": 184
            },
            {
                "rt": -1,
                "trial_type": "single-stim",
                "stimulus": "<div class = imageBox><img class = image src = img/line_images/15_al_02_01.png </img></div>",
                "trial_id": "probe",
                "internal_node_id": "0.0-185.0",
                "time_elapsed": 281995,
                "key_press": -1,
                "trial_index": 185
            },
            {
                "rt": 219,
                "trial_type": "single-stim",
                "stimulus": "<div class = centerbox style = text-align:center><p style = font-size:50px>Same or different? </p></div>",
                "trial_id": "response_line",
                "internal_node_id": "0.0-186.0",
                "correct": true,
                "time_elapsed": 283215,
                "key_press": 48,
                "alignment": [
                    "aligned"
                ],
                "congruency": [
                    "incongruent"
                ],
                "response": [
                    "different"
                ],
                "trial_index": 186
            },
            {
                "rt": -1,
                "trial_type": "single-stim",
                "stimulus": "<div class = imageBox><img class = image src = img/line_images/9_target_01_01.png </img></div>",
                "trial_id": "target",
                "internal_node_id": "0.0-187.0",
                "time_elapsed": 284417,
                "key_press": -1,
                "trial_index": 187
            },
            {
                "rt": -1,
                "trial_type": "single-stim",
                "stimulus": "<div class = imageBox><img class = image src = img/Pmask4.jpg </img></div>",
                "trial_id": "mask",
                "internal_node_id": "0.0-188.0",
                "time_elapsed": 285819,
                "key_press": -1,
                "trial_index": 188
            },
            {
                "rt": -1,
                "trial_type": "single-stim",
                "stimulus": "<div class = imageBox><img class = image src = img/line_images/9_al_01_02.png </img></div>",
                "trial_id": "probe",
                "internal_node_id": "0.0-189.0",
                "time_elapsed": 287021,
                "key_press": -1,
                "trial_index": 189
            },
            {
                "rt": 103,
                "trial_type": "single-stim",
                "stimulus": "<div class = centerbox style = text-align:center><p style = font-size:50px>Same or different? </p></div>",
                "trial_id": "response_line",
                "internal_node_id": "0.0-190.0",
                "correct": true,
                "time_elapsed": 288125,
                "key_press": 49,
                "alignment": [
                    "aligned"
                ],
                "congruency": [
                    "incongruent"
                ],
                "response": [
                    "same"
                ],
                "trial_index": 190
            },
            {
                "rt": -1,
                "trial_type": "single-stim",
                "stimulus": "<div class = imageBox><img class = image src = img/line_images/8_target_01_01.png </img></div>",
                "trial_id": "target",
                "internal_node_id": "0.0-191.0",
                "time_elapsed": 289327,
                "key_press": -1,
                "trial_index": 191
            },
            {
                "rt": -1,
                "trial_type": "single-stim",
                "stimulus": "<div class = imageBox><img class = image src = img/Pmask3.jpg </img></div>",
                "trial_id": "mask",
                "internal_node_id": "0.0-192.0",
                "time_elapsed": 290729,
                "key_press": -1,
                "trial_index": 192
            },
            {
                "rt": -1,
                "trial_type": "single-stim",
                "stimulus": "<div class = imageBox><img class = image src = img/line_images/8_al_02_01.png </img></div>",
                "trial_id": "probe",
                "internal_node_id": "0.0-193.0",
                "time_elapsed": 291931,
                "key_press": -1,
                "trial_index": 193
            },
            {
                "rt": 240,
                "trial_type": "single-stim",
                "stimulus": "<div class = centerbox style = text-align:center><p style = font-size:50px>Same or different? </p></div>",
                "trial_id": "response_line",
                "internal_node_id": "0.0-194.0",
                "correct": true,
                "time_elapsed": 293173,
                "key_press": 48,
                "alignment": [
                    "aligned"
                ],
                "congruency": [
                    "incongruent"
                ],
                "response": [
                    "different"
                ],
                "trial_index": 194
            },
            {
                "rt": -1,
                "trial_type": "single-stim",
                "stimulus": "<div class = imageBox><img class = image src = img/line_images/6_target_01_01.png </img></div>",
                "trial_id": "target",
                "internal_node_id": "0.0-195.0",
                "time_elapsed": 294375,
                "key_press": -1,
                "trial_index": 195
            },
            {
                "rt": -1,
                "trial_type": "single-stim",
                "stimulus": "<div class = imageBox><img class = image src = img/Pmask3.jpg </img></div>",
                "trial_id": "mask",
                "internal_node_id": "0.0-196.0",
                "time_elapsed": 295777,
                "key_press": -1,
                "trial_index": 196
            },
            {
                "rt": -1,
                "trial_type": "single-stim",
                "stimulus": "<div class = imageBox><img class = image src = img/line_images/6_mis_01_02.png </img></div>",
                "trial_id": "probe",
                "internal_node_id": "0.0-197.0",
                "time_elapsed": 296979,
                "key_press": -1,
                "trial_index": 197
            },
            {
                "rt": 211,
                "trial_type": "single-stim",
                "stimulus": "<div class = centerbox style = text-align:center><p style = font-size:50px>Same or different? </p></div>",
                "trial_id": "response_line",
                "internal_node_id": "0.0-198.0",
                "correct": true,
                "time_elapsed": 298192,
                "key_press": 49,
                "alignment": [
                    "misaligned"
                ],
                "congruency": [
                    "incongruent"
                ],
                "response": [
                    "same"
                ],
                "trial_index": 198
            },
            {
                "rt": -1,
                "trial_type": "single-stim",
                "stimulus": "<div class = imageBox><img class = image src = img/line_images/17_target_01_01.png </img></div>",
                "trial_id": "target",
                "internal_node_id": "0.0-199.0",
                "time_elapsed": 299394,
                "key_press": -1,
                "trial_index": 199
            },
            {
                "rt": -1,
                "trial_type": "single-stim",
                "stimulus": "<div class = imageBox><img class = image src = img/Pmask3.jpg </img></div>",
                "trial_id": "mask",
                "internal_node_id": "0.0-200.0",
                "time_elapsed": 300796,
                "key_press": -1,
                "trial_index": 200
            },
            {
                "rt": -1,
                "trial_type": "single-stim",
                "stimulus": "<div class = imageBox><img class = image src = img/line_images/17_mis_01_01.png </img></div>",
                "trial_id": "probe",
                "internal_node_id": "0.0-201.0",
                "time_elapsed": 301998,
                "key_press": -1,
                "trial_index": 201
            },
            {
                "rt": 246,
                "trial_type": "single-stim",
                "stimulus": "<div class = centerbox style = text-align:center><p style = font-size:50px>Same or different? </p></div>",
                "trial_id": "response_line",
                "internal_node_id": "0.0-202.0",
                "correct": false,
                "time_elapsed": 303245,
                "key_press": 48,
                "alignment": [
                    "misaligned"
                ],
                "congruency": [
                    "congruent"
                ],
                "response": [
                    "same"
                ],
                "trial_index": 202
            },
            {
                "rt": -1,
                "trial_type": "single-stim",
                "stimulus": "<div class = imageBox><img class = image src = img/line_images/16_target_01_01.png </img></div>",
                "trial_id": "target",
                "internal_node_id": "0.0-203.0",
                "time_elapsed": 304447,
                "key_press": -1,
                "trial_index": 203
            },
            {
                "rt": -1,
                "trial_type": "single-stim",
                "stimulus": "<div class = imageBox><img class = image src = img/Pmask4.jpg </img></div>",
                "trial_id": "mask",
                "internal_node_id": "0.0-204.0",
                "time_elapsed": 305849,
                "key_press": -1,
                "trial_index": 204
            },
            {
                "rt": -1,
                "trial_type": "single-stim",
                "stimulus": "<div class = imageBox><img class = image src = img/line_images/16_mis_02_02.png </img></div>",
                "trial_id": "probe",
                "internal_node_id": "0.0-205.0",
                "time_elapsed": 307051,
                "key_press": -1,
                "trial_index": 205
            },
            {
                "rt": 283,
                "trial_type": "single-stim",
                "stimulus": "<div class = centerbox style = text-align:center><p style = font-size:50px>Same or different? </p></div>",
                "trial_id": "response_line",
                "internal_node_id": "0.0-206.0",
                "correct": true,
                "time_elapsed": 308335,
                "key_press": 48,
                "alignment": [
                    "misaligned"
                ],
                "congruency": [
                    "congruent"
                ],
                "response": [
                    "different"
                ],
                "trial_index": 206
            },
            {
                "rt": -1,
                "trial_type": "single-stim",
                "stimulus": "<div class = imageBox><img class = image src = img/line_images/12_target_01_01.png </img></div>",
                "trial_id": "target",
                "internal_node_id": "0.0-207.0",
                "time_elapsed": 309537,
                "key_press": -1,
                "trial_index": 207
            },
            {
                "rt": -1,
                "trial_type": "single-stim",
                "stimulus": "<div class = imageBox><img class = image src = img/Pmask3.jpg </img></div>",
                "trial_id": "mask",
                "internal_node_id": "0.0-208.0",
                "time_elapsed": 310939,
                "key_press": -1,
                "trial_index": 208
            },
            {
                "rt": -1,
                "trial_type": "single-stim",
                "stimulus": "<div class = imageBox><img class = image src = img/line_images/12_al_02_01.png </img></div>",
                "trial_id": "probe",
                "internal_node_id": "0.0-209.0",
                "time_elapsed": 312141,
                "key_press": -1,
                "trial_index": 209
            },
            {
                "rt": 158,
                "trial_type": "single-stim",
                "stimulus": "<div class = centerbox style = text-align:center><p style = font-size:50px>Same or different? </p></div>",
                "trial_id": "response_line",
                "internal_node_id": "0.0-210.0",
                "correct": true,
                "time_elapsed": 313300,
                "key_press": 48,
                "alignment": [
                    "aligned"
                ],
                "congruency": [
                    "incongruent"
                ],
                "response": [
                    "different"
                ],
                "trial_index": 210
            },
            {
                "rt": -1,
                "trial_type": "single-stim",
                "stimulus": "<div class = imageBox><img class = image src = img/line_images/15_target_01_01.png </img></div>",
                "trial_id": "target",
                "internal_node_id": "0.0-211.0",
                "time_elapsed": 314502,
                "key_press": -1,
                "trial_index": 211
            },
            {
