{
    "AutoApprovalTime": "2017-11-29T20:33:34Z",
    "AssignmentId": "3M23Y66PO2756O52UEJG0SMM7M96SH",
    "WorkerId": "A2W3I2GBGDB637",
    "answers": {
        "data": [
            {
                "rt": -1,
                "trial_type": "text",
                "internal_node_id": "0.0-0.0",
                "time_elapsed": 5116,
                "key_press": 13,
                "trial_index": 0
            },
            {
                "rt": -1,
                "trial_type": "text",
                "internal_node_id": "0.0-1.0",
                "time_elapsed": 34433,
                "key_press": 13,
                "trial_index": 1
            },
            {
                "rt": -1,
                "trial_type": "single-stim",
                "stimulus": "<div class = imageBox><img class = image src = img/line_images/21_target_01_01.png </img></div>",
                "internal_node_id": "0.0-2.0",
                "time_elapsed": 36645,
                "key_press": -1,
                "trial_index": 2
            },
            {
                "rt": -1,
                "trial_type": "single-stim",
                "stimulus": "<div class = imageBox><img class = image src = img/Pmask1.jpg </img></div>",
                "trial_id": "mask",
                "internal_node_id": "0.0-3.0",
                "time_elapsed": 38049,
                "key_press": -1,
                "trial_index": 3
            },
            {
                "rt": -1,
                "trial_type": "single-stim",
                "stimulus": "<div class = imageBox><img class = image src = img/line_images/21_al_01_02.png </img></div>",
                "internal_node_id": "0.0-4.0",
                "time_elapsed": 39253,
                "key_press": -1,
                "trial_index": 4
            },
            {
                "rt": -1,
                "trial_type": "single-stim",
                "stimulus": "<div class = centerbox style = text-align:center><p style = font-size:50px>Same or different? </p></div>",
                "internal_node_id": "0.0-5.0",
                "correct": false,
                "time_elapsed": 41057,
                "key_press": 48,
                "response": [
                    "same"
                ],
                "trial_index": 5
            },
            {
                "rt": -1,
                "trial_type": "single-stim",
                "stimulus": "<div class = centerbox style = text-align:center><p style = font-size:40px><span class = 'large' style = 'color:red'>Incorrect</span> </p></div>",
                "internal_node_id": "0.0-6.0",
                "time_elapsed": 42563,
                "key_press": -1,
                "trial_index": 6
            },
            {
                "rt": -1,
                "trial_type": "single-stim",
                "stimulus": "<div class = imageBox><img class = image src = img/line_images/23_target_01_01.png </img></div>",
                "internal_node_id": "0.0-7.0",
                "time_elapsed": 43767,
                "key_press": -1,
                "trial_index": 7
            },
            {
                "rt": -1,
                "trial_type": "single-stim",
                "stimulus": "<div class = imageBox><img class = image src = img/Pmask2.jpg </img></div>",
                "trial_id": "mask",
                "internal_node_id": "0.0-8.0",
                "time_elapsed": 45186,
                "key_press": -1,
                "trial_index": 8
            },
            {
                "rt": -1,
                "trial_type": "single-stim",
                "stimulus": "<div class = imageBox><img class = image src = img/line_images/23_mis_01_02.png </img></div>",
                "internal_node_id": "0.0-9.0",
                "time_elapsed": 46389,
                "key_press": -1,
                "trial_index": 9
            },
            {
                "rt": -1,
                "trial_type": "single-stim",
                "stimulus": "<div class = centerbox style = text-align:center><p style = font-size:50px>Same or different? </p></div>",
                "internal_node_id": "0.0-10.0",
                "correct": true,
                "time_elapsed": 47901,
                "key_press": 49,
                "response": [
                    "same"
                ],
                "trial_index": 10
            },
            {
                "rt": -1,
                "trial_type": "single-stim",
                "stimulus": "<div class = centerbox style = text-align:center><p style = font-size:40px><span class = 'large' style = 'color:green'>Correct!</span> </p></div>",
                "internal_node_id": "0.0-11.0",
                "time_elapsed": 49403,
                "key_press": -1,
                "trial_index": 11
            },
            {
                "rt": -1,
                "trial_type": "single-stim",
                "stimulus": "<div class = imageBox><img class = image src = img/line_images/24_target_01_01.png </img></div>",
                "internal_node_id": "0.0-12.0",
                "time_elapsed": 50605,
                "key_press": -1,
                "trial_index": 12
            },
            {
                "rt": -1,
                "trial_type": "single-stim",
                "stimulus": "<div class = imageBox><img class = image src = img/Pmask2.jpg </img></div>",
                "trial_id": "mask",
                "internal_node_id": "0.0-13.0",
                "time_elapsed": 52010,
                "key_press": -1,
                "trial_index": 13
            },
            {
                "rt": -1,
                "trial_type": "single-stim",
                "stimulus": "<div class = imageBox><img class = image src = img/line_images/24_al_02_01.png </img></div>",
                "internal_node_id": "0.0-14.0",
                "time_elapsed": 53214,
                "key_press": -1,
                "trial_index": 14
            },
            {
                "rt": -1,
                "trial_type": "single-stim",
                "stimulus": "<div class = centerbox style = text-align:center><p style = font-size:50px>Same or different? </p></div>",
                "internal_node_id": "0.0-15.0",
                "correct": false,
                "time_elapsed": 54545,
                "key_press": 49,
                "response": [
                    "different"
                ],
                "trial_index": 15
            },
            {
                "rt": -1,
                "trial_type": "single-stim",
                "stimulus": "<div class = centerbox style = text-align:center><p style = font-size:40px><span class = 'large' style = 'color:red'>Incorrect</span> </p></div>",
                "internal_node_id": "0.0-16.0",
                "time_elapsed": 56051,
                "key_press": -1,
                "trial_index": 16
            },
            {
                "rt": -1,
                "trial_type": "single-stim",
                "stimulus": "<div class = imageBox><img class = image src = img/line_images/24_target_01_01.png </img></div>",
                "internal_node_id": "0.0-17.0",
                "time_elapsed": 57255,
                "key_press": -1,
                "trial_index": 17
            },
            {
                "rt": -1,
                "trial_type": "single-stim",
                "stimulus": "<div class = imageBox><img class = image src = img/Pmask1.jpg </img></div>",
                "trial_id": "mask",
                "internal_node_id": "0.0-18.0",
                "time_elapsed": 58659,
                "key_press": -1,
                "trial_index": 18
            },
            {
                "rt": -1,
                "trial_type": "single-stim",
                "stimulus": "<div class = imageBox><img class = image src = img/line_images/24_mis_02_01.png </img></div>",
                "internal_node_id": "0.0-19.0",
                "time_elapsed": 59862,
                "key_press": -1,
                "trial_index": 19
            },
            {
                "rt": -1,
                "trial_type": "single-stim",
                "stimulus": "<div class = centerbox style = text-align:center><p style = font-size:50px>Same or different? </p></div>",
                "internal_node_id": "0.0-20.0",
                "correct": true,
                "time_elapsed": 61045,
                "key_press": 48,
                "response": [
                    "different"
                ],
                "trial_index": 20
            },
            {
                "rt": -1,
                "trial_type": "single-stim",
                "stimulus": "<div class = centerbox style = text-align:center><p style = font-size:40px><span class = 'large' style = 'color:green'>Correct!</span> </p></div>",
                "internal_node_id": "0.0-21.0",
                "time_elapsed": 62550,
                "key_press": -1,
                "trial_index": 21
            },
            {
                "rt": -1,
                "trial_type": "single-stim",
                "stimulus": "<div class = imageBox><img class = image src = img/line_images/21_target_01_01.png </img></div>",
                "internal_node_id": "0.0-22.0",
                "time_elapsed": 63754,
                "key_press": -1,
                "trial_index": 22
            },
            {
                "rt": -1,
                "trial_type": "single-stim",
                "stimulus": "<div class = imageBox><img class = image src = img/Pmask4.jpg </img></div>",
                "trial_id": "mask",
                "internal_node_id": "0.0-23.0",
                "time_elapsed": 65159,
                "key_press": -1,
                "trial_index": 23
            },
            {
                "rt": -1,
                "trial_type": "single-stim",
                "stimulus": "<div class = imageBox><img class = image src = img/line_images/21_al_02_01.png </img></div>",
                "internal_node_id": "0.0-24.0",
                "time_elapsed": 66362,
                "key_press": -1,
                "trial_index": 24
            },
            {
                "rt": -1,
                "trial_type": "single-stim",
                "stimulus": "<div class = centerbox style = text-align:center><p style = font-size:50px>Same or different? </p></div>",
                "internal_node_id": "0.0-25.0",
                "correct": true,
                "time_elapsed": 67593,
                "key_press": 48,
                "response": [
                    "different"
                ],
                "trial_index": 25
            },
            {
                "rt": -1,
                "trial_type": "single-stim",
                "stimulus": "<div class = centerbox style = text-align:center><p style = font-size:40px><span class = 'large' style = 'color:green'>Correct!</span> </p></div>",
                "internal_node_id": "0.0-26.0",
                "time_elapsed": 69098,
                "key_press": -1,
                "trial_index": 26
            },
            {
                "rt": -1,
                "trial_type": "single-stim",
                "stimulus": "<div class = imageBox><img class = image src = img/line_images/23_target_01_01.png </img></div>",
                "internal_node_id": "0.0-27.0",
                "time_elapsed": 70300,
                "key_press": -1,
                "trial_index": 27
            },
            {
                "rt": -1,
                "trial_type": "single-stim",
                "stimulus": "<div class = imageBox><img class = image src = img/Pmask2.jpg </img></div>",
                "trial_id": "mask",
                "internal_node_id": "0.0-28.0",
                "time_elapsed": 71703,
                "key_press": -1,
                "trial_index": 28
            },
            {
                "rt": -1,
                "trial_type": "single-stim",
                "stimulus": "<div class = imageBox><img class = image src = img/line_images/23_al_02_01.png </img></div>",
                "internal_node_id": "0.0-29.0",
                "time_elapsed": 72906,
                "key_press": -1,
                "trial_index": 29
            },
            {
                "rt": -1,
                "trial_type": "single-stim",
                "stimulus": "<div class = centerbox style = text-align:center><p style = font-size:50px>Same or different? </p></div>",
                "internal_node_id": "0.0-30.0",
                "correct": false,
                "time_elapsed": 74212,
                "key_press": 49,
                "response": [
                    "different"
                ],
                "trial_index": 30
            },
            {
                "rt": -1,
                "trial_type": "single-stim",
                "stimulus": "<div class = centerbox style = text-align:center><p style = font-size:40px><span class = 'large' style = 'color:red'>Incorrect</span> </p></div>",
                "internal_node_id": "0.0-31.0",
                "time_elapsed": 75719,
                "key_press": -1,
                "trial_index": 31
            },
            {
                "rt": -1,
                "trial_type": "single-stim",
                "stimulus": "<div class = imageBox><img class = image src = img/line_images/23_target_01_01.png </img></div>",
                "internal_node_id": "0.0-32.0",
                "time_elapsed": 76926,
                "key_press": -1,
                "trial_index": 32
            },
            {
                "rt": -1,
                "trial_type": "single-stim",
                "stimulus": "<div class = imageBox><img class = image src = img/Pmask2.jpg </img></div>",
                "trial_id": "mask",
                "internal_node_id": "0.0-33.0",
                "time_elapsed": 78328,
                "key_press": -1,
                "trial_index": 33
            },
            {
                "rt": -1,
                "trial_type": "single-stim",
                "stimulus": "<div class = imageBox><img class = image src = img/line_images/23_al_01_01.png </img></div>",
                "internal_node_id": "0.0-34.0",
                "time_elapsed": 79530,
                "key_press": -1,
                "trial_index": 34
            },
            {
                "rt": -1,
                "trial_type": "single-stim",
                "stimulus": "<div class = centerbox style = text-align:center><p style = font-size:50px>Same or different? </p></div>",
                "internal_node_id": "0.0-35.0",
                "correct": true,
                "time_elapsed": 80633,
                "key_press": 49,
                "response": [
                    "same"
                ],
                "trial_index": 35
            },
            {
                "rt": -1,
                "trial_type": "single-stim",
                "stimulus": "<div class = centerbox style = text-align:center><p style = font-size:40px><span class = 'large' style = 'color:green'>Correct!</span> </p></div>",
                "internal_node_id": "0.0-36.0",
                "time_elapsed": 82139,
                "key_press": -1,
                "trial_index": 36
            },
            {
                "rt": -1,
                "trial_type": "single-stim",
                "stimulus": "<div class = imageBox><img class = image src = img/line_images/22_target_01_01.png </img></div>",
                "internal_node_id": "0.0-37.0",
                "time_elapsed": 83342,
                "key_press": -1,
                "trial_index": 37
            },
            {
                "rt": -1,
                "trial_type": "single-stim",
                "stimulus": "<div class = imageBox><img class = image src = img/Pmask1.jpg </img></div>",
                "trial_id": "mask",
                "internal_node_id": "0.0-38.0",
                "time_elapsed": 84745,
                "key_press": -1,
                "trial_index": 38
            },
            {
                "rt": -1,
                "trial_type": "single-stim",
                "stimulus": "<div class = imageBox><img class = image src = img/line_images/22_mis_02_02.png </img></div>",
                "internal_node_id": "0.0-39.0",
                "time_elapsed": 85950,
                "key_press": -1,
                "trial_index": 39
            },
            {
                "rt": -1,
                "trial_type": "single-stim",
                "stimulus": "<div class = centerbox style = text-align:center><p style = font-size:50px>Same or different? </p></div>",
                "internal_node_id": "0.0-40.0",
                "correct": true,
                "time_elapsed": 87216,
                "key_press": 48,
                "response": [
                    "different"
                ],
                "trial_index": 40
            },
            {
                "rt": -1,
                "trial_type": "single-stim",
                "stimulus": "<div class = centerbox style = text-align:center><p style = font-size:40px><span class = 'large' style = 'color:green'>Correct!</span> </p></div>",
                "internal_node_id": "0.0-41.0",
                "time_elapsed": 88742,
                "key_press": -1,
                "trial_index": 41
            },
            {
                "rt": -1,
                "trial_type": "text",
                "internal_node_id": "0.0-42.0",
                "time_elapsed": 98304,
                "key_press": 13,
                "trial_index": 42
            },
            {
                "rt": -1,
                "trial_type": "single-stim",
                "stimulus": "<div class = imageBox><img class = image src = img/line_images/1_target_01_01.png </img></div>",
                "trial_id": "target",
                "internal_node_id": "0.0-43.0",
                "time_elapsed": 100508,
                "key_press": -1,
                "trial_index": 43
            },
            {
                "rt": -1,
                "trial_type": "single-stim",
                "stimulus": "<div class = imageBox><img class = image src = img/Pmask2.jpg </img></div>",
                "trial_id": "mask",
                "internal_node_id": "0.0-44.0",
                "time_elapsed": 101910,
                "key_press": -1,
                "trial_index": 44
            },
            {
                "rt": -1,
                "trial_type": "single-stim",
                "stimulus": "<div class = imageBox><img class = image src = img/line_images/1_al_01_01.png </img></div>",
                "trial_id": "probe",
                "internal_node_id": "0.0-45.0",
                "time_elapsed": 103113,
                "key_press": -1,
                "trial_index": 45
            },
            {
                "rt": 930,
                "trial_type": "single-stim",
                "stimulus": "<div class = centerbox style = text-align:center><p style = font-size:50px>Same or different? </p></div>",
                "trial_id": "response_line",
                "internal_node_id": "0.0-46.0",
                "correct": true,
                "time_elapsed": 105046,
                "key_press": 49,
                "alignment": [
                    "aligned"
                ],
                "congruency": [
                    "congruent"
                ],
                "response": [
                    "same"
                ],
                "trial_index": 46
            },
            {
                "rt": -1,
                "trial_type": "single-stim",
                "stimulus": "<div class = imageBox><img class = image src = img/line_images/2_target_01_01.png </img></div>",
                "trial_id": "target",
                "internal_node_id": "0.0-47.0",
                "time_elapsed": 106251,
                "key_press": -1,
                "trial_index": 47
            },
            {
                "rt": -1,
                "trial_type": "single-stim",
                "stimulus": "<div class = imageBox><img class = image src = img/Pmask2.jpg </img></div>",
                "trial_id": "mask",
                "internal_node_id": "0.0-48.0",
                "time_elapsed": 107655,
                "key_press": -1,
                "trial_index": 48
            },
            {
                "rt": -1,
                "trial_type": "single-stim",
                "stimulus": "<div class = imageBox><img class = image src = img/line_images/2_al_02_02.png </img></div>",
                "trial_id": "probe",
                "internal_node_id": "0.0-49.0",
                "time_elapsed": 108858,
                "key_press": -1,
                "trial_index": 49
            },
            {
                "rt": 310,
                "trial_type": "single-stim",
                "stimulus": "<div class = centerbox style = text-align:center><p style = font-size:50px>Same or different? </p></div>",
                "trial_id": "response_line",
                "internal_node_id": "0.0-50.0",
                "correct": true,
                "time_elapsed": 110172,
                "key_press": 48,
                "alignment": [
                    "aligned"
                ],
                "congruency": [
                    "congruent"
                ],
                "response": [
                    "different"
                ],
                "trial_index": 50
            },
            {
                "rt": -1,
                "trial_type": "single-stim",
                "stimulus": "<div class = imageBox><img class = image src = img/line_images/2_target_01_01.png </img></div>",
                "trial_id": "target",
                "internal_node_id": "0.0-51.0",
                "time_elapsed": 111375,
                "key_press": -1,
                "trial_index": 51
            },
            {
                "rt": -1,
                "trial_type": "single-stim",
                "stimulus": "<div class = imageBox><img class = image src = img/Pmask3.jpg </img></div>",
                "trial_id": "mask",
                "internal_node_id": "0.0-52.0",
                "time_elapsed": 112779,
                "key_press": -1,
                "trial_index": 52
            },
            {
                "rt": -1,
                "trial_type": "single-stim",
                "stimulus": "<div class = imageBox><img class = image src = img/line_images/2_mis_01_02.png </img></div>",
                "trial_id": "probe",
                "internal_node_id": "0.0-53.0",
                "time_elapsed": 113982,
                "key_press": -1,
                "trial_index": 53
            },
            {
                "rt": 255,
                "trial_type": "single-stim",
                "stimulus": "<div class = centerbox style = text-align:center><p style = font-size:50px>Same or different? </p></div>",
                "trial_id": "response_line",
                "internal_node_id": "0.0-54.0",
                "correct": false,
                "time_elapsed": 115239,
                "key_press": 48,
                "alignment": [
                    "misaligned"
                ],
                "congruency": [
                    "incongruent"
                ],
                "response": [
                    "same"
                ],
                "trial_index": 54
            },
            {
                "rt": -1,
                "trial_type": "single-stim",
                "stimulus": "<div class = imageBox><img class = image src = img/line_images/4_target_01_01.png </img></div>",
                "trial_id": "target",
                "internal_node_id": "0.0-55.0",
                "time_elapsed": 116442,
                "key_press": -1,
                "trial_index": 55
            },
            {
                "rt": -1,
                "trial_type": "single-stim",
                "stimulus": "<div class = imageBox><img class = image src = img/Pmask4.jpg </img></div>",
                "trial_id": "mask",
                "internal_node_id": "0.0-56.0",
                "time_elapsed": 117845,
                "key_press": -1,
                "trial_index": 56
            },
            {
                "rt": -1,
                "trial_type": "single-stim",
                "stimulus": "<div class = imageBox><img class = image src = img/line_images/4_al_01_01.png </img></div>",
                "trial_id": "probe",
                "internal_node_id": "0.0-57.0",
                "time_elapsed": 119048,
                "key_press": -1,
                "trial_index": 57
            },
            {
                "rt": 225,
                "trial_type": "single-stim",
                "stimulus": "<div class = centerbox style = text-align:center><p style = font-size:50px>Same or different? </p></div>",
                "trial_id": "response_line",
                "internal_node_id": "0.0-58.0",
                "correct": true,
                "time_elapsed": 120275,
                "key_press": 49,
                "alignment": [
                    "aligned"
                ],
                "congruency": [
                    "congruent"
                ],
                "response": [
                    "same"
                ],
                "trial_index": 58
            },
            {
                "rt": -1,
                "trial_type": "single-stim",
                "stimulus": "<div class = imageBox><img class = image src = img/line_images/14_target_01_01.png </img></div>",
                "trial_id": "target",
                "internal_node_id": "0.0-59.0",
                "time_elapsed": 121480,
                "key_press": -1,
                "trial_index": 59
            },
            {
                "rt": -1,
                "trial_type": "single-stim",
                "stimulus": "<div class = imageBox><img class = image src = img/Pmask2.jpg </img></div>",
                "trial_id": "mask",
                "internal_node_id": "0.0-60.0",
                "time_elapsed": 122892,
                "key_press": -1,
                "trial_index": 60
            },
            {
                "rt": -1,
                "trial_type": "single-stim",
                "stimulus": "<div class = imageBox><img class = image src = img/line_images/14_al_02_02.png </img></div>",
                "trial_id": "probe",
                "internal_node_id": "0.0-61.0",
                "time_elapsed": 124095,
                "key_press": -1,
                "trial_index": 61
            },
            {
                "rt": 8,
                "trial_type": "single-stim",
                "stimulus": "<div class = centerbox style = text-align:center><p style = font-size:50px>Same or different? </p></div>",
                "trial_id": "response_line",
                "internal_node_id": "0.0-62.0",
                "correct": true,
                "time_elapsed": 125105,
                "key_press": 48,
                "alignment": [
                    "aligned"
                ],
                "congruency": [
                    "congruent"
                ],
                "response": [
                    "different"
                ],
                "trial_index": 62
            },
            {
                "rt": -1,
                "trial_type": "single-stim",
                "stimulus": "<div class = imageBox><img class = image src = img/line_images/6_target_01_01.png </img></div>",
                "trial_id": "target",
                "internal_node_id": "0.0-63.0",
                "time_elapsed": 126309,
                "key_press": -1,
                "trial_index": 63
            },
            {
                "rt": -1,
                "trial_type": "single-stim",
                "stimulus": "<div class = imageBox><img class = image src = img/Pmask2.jpg </img></div>",
                "trial_id": "mask",
                "internal_node_id": "0.0-64.0",
                "time_elapsed": 127714,
                "key_press": -1,
                "trial_index": 64
            },
            {
                "rt": -1,
                "trial_type": "single-stim",
                "stimulus": "<div class = imageBox><img class = image src = img/line_images/6_al_01_01.png </img></div>",
                "trial_id": "probe",
                "internal_node_id": "0.0-65.0",
                "time_elapsed": 128916,
                "key_press": -1,
                "trial_index": 65
            },
            {
                "rt": 3076,
                "trial_type": "single-stim",
                "stimulus": "<div class = centerbox style = text-align:center><p style = font-size:50px>Same or different? </p></div>",
                "trial_id": "response_line",
                "internal_node_id": "0.0-66.0",
                "correct": true,
                "time_elapsed": 132996,
                "key_press": 49,
                "alignment": [
                    "aligned"
                ],
                "congruency": [
                    "congruent"
                ],
                "response": [
                    "same"
                ],
                "trial_index": 66
            },
            {
                "rt": -1,
                "trial_type": "single-stim",
                "stimulus": "<div class = imageBox><img class = image src = img/line_images/8_target_01_01.png </img></div>",
                "trial_id": "target",
                "internal_node_id": "0.0-67.0",
                "time_elapsed": 134200,
                "key_press": -1,
                "trial_index": 67
            },
            {
                "rt": -1,
                "trial_type": "single-stim",
                "stimulus": "<div class = imageBox><img class = image src = img/Pmask1.jpg </img></div>",
                "trial_id": "mask",
                "internal_node_id": "0.0-68.0",
                "time_elapsed": 135602,
                "key_press": -1,
                "trial_index": 68
            },
            {
                "rt": -1,
                "trial_type": "single-stim",
                "stimulus": "<div class = imageBox><img class = image src = img/line_images/8_mis_02_02.png </img></div>",
                "trial_id": "probe",
                "internal_node_id": "0.0-69.0",
                "time_elapsed": 136806,
                "key_press": -1,
                "trial_index": 69
            },
            {
                "rt": 542,
                "trial_type": "single-stim",
                "stimulus": "<div class = centerbox style = text-align:center><p style = font-size:50px>Same or different? </p></div>",
                "trial_id": "response_line",
                "internal_node_id": "0.0-70.0",
                "correct": true,
                "time_elapsed": 138350,
                "key_press": 48,
                "alignment": [
                    "misaligned"
                ],
                "congruency": [
                    "congruent"
                ],
                "response": [
                    "different"
                ],
                "trial_index": 70
            },
            {
                "rt": -1,
                "trial_type": "single-stim",
                "stimulus": "<div class = imageBox><img class = image src = img/line_images/19_target_01_01.png </img></div>",
                "trial_id": "target",
                "internal_node_id": "0.0-71.0",
                "time_elapsed": 139554,
                "key_press": -1,
                "trial_index": 71
            },
            {
                "rt": -1,
                "trial_type": "single-stim",
                "stimulus": "<div class = imageBox><img class = image src = img/Pmask5.jpg </img></div>",
                "trial_id": "mask",
                "internal_node_id": "0.0-72.0",
                "time_elapsed": 140957,
                "key_press": -1,
                "trial_index": 72
            },
            {
                "rt": -1,
                "trial_type": "single-stim",
                "stimulus": "<div class = imageBox><img class = image src = img/line_images/19_al_01_02.png </img></div>",
                "trial_id": "probe",
                "internal_node_id": "0.0-73.0",
                "time_elapsed": 142160,
                "key_press": -1,
                "trial_index": 73
            },
            {
                "rt": 2176,
                "trial_type": "single-stim",
                "stimulus": "<div class = centerbox style = text-align:center><p style = font-size:50px>Same or different? </p></div>",
                "trial_id": "response_line",
                "internal_node_id": "0.0-74.0",
                "correct": false,
                "time_elapsed": 145340,
                "key_press": 48,
                "alignment": [
                    "aligned"
                ],
                "congruency": [
                    "incongruent"
                ],
                "response": [
                    "same"
                ],
                "trial_index": 74
            },
            {
                "rt": -1,
                "trial_type": "single-stim",
                "stimulus": "<div class = imageBox><img class = image src = img/line_images/7_target_01_01.png </img></div>",
                "trial_id": "target",
                "internal_node_id": "0.0-75.0",
                "time_elapsed": 146542,
                "key_press": -1,
                "trial_index": 75
            },
            {
                "rt": -1,
                "trial_type": "single-stim",
                "stimulus": "<div class = imageBox><img class = image src = img/Pmask4.jpg </img></div>",
                "trial_id": "mask",
                "internal_node_id": "0.0-76.0",
                "time_elapsed": 147945,
                "key_press": -1,
                "trial_index": 76
            },
            {
                "rt": -1,
                "trial_type": "single-stim",
                "stimulus": "<div class = imageBox><img class = image src = img/line_images/7_mis_02_02.png </img></div>",
                "trial_id": "probe",
                "internal_node_id": "0.0-77.0",
                "time_elapsed": 149149,
                "key_press": -1,
                "trial_index": 77
            },
            {
                "rt": 257,
                "trial_type": "single-stim",
                "stimulus": "<div class = centerbox style = text-align:center><p style = font-size:50px>Same or different? </p></div>",
                "trial_id": "response_line",
                "internal_node_id": "0.0-78.0",
                "correct": true,
                "time_elapsed": 150408,
                "key_press": 48,
                "alignment": [
                    "misaligned"
                ],
                "congruency": [
                    "congruent"
                ],
                "response": [
                    "different"
                ],
                "trial_index": 78
            },
            {
                "rt": -1,
                "trial_type": "single-stim",
                "stimulus": "<div class = imageBox><img class = image src = img/line_images/12_target_01_01.png </img></div>",
                "trial_id": "target",
                "internal_node_id": "0.0-79.0",
                "time_elapsed": 151611,
                "key_press": -1,
                "trial_index": 79
            },
            {
                "rt": -1,
                "trial_type": "single-stim",
                "stimulus": "<div class = imageBox><img class = image src = img/Pmask2.jpg </img></div>",
                "trial_id": "mask",
                "internal_node_id": "0.0-80.0",
                "time_elapsed": 153015,
                "key_press": -1,
                "trial_index": 80
            },
            {
                "rt": -1,
                "trial_type": "single-stim",
                "stimulus": "<div class = imageBox><img class = image src = img/line_images/12_al_02_01.png </img></div>",
                "trial_id": "probe",
                "internal_node_id": "0.0-81.0",
                "time_elapsed": 154218,
                "key_press": -1,
                "trial_index": 81
            },
            {
                "rt": 323,
                "trial_type": "single-stim",
                "stimulus": "<div class = centerbox style = text-align:center><p style = font-size:50px>Same or different? </p></div>",
                "trial_id": "response_line",
                "internal_node_id": "0.0-82.0",
                "correct": false,
                "time_elapsed": 155543,
                "key_press": 49,
                "alignment": [
                    "aligned"
                ],
                "congruency": [
                    "incongruent"
                ],
                "response": [
                    "different"
                ],
                "trial_index": 82
            },
            {
                "rt": -1,
                "trial_type": "single-stim",
                "stimulus": "<div class = imageBox><img class = image src = img/line_images/5_target_01_01.png </img></div>",
                "trial_id": "target",
                "internal_node_id": "0.0-83.0",
                "time_elapsed": 156746,
                "key_press": -1,
                "trial_index": 83
            },
            {
                "rt": -1,
                "trial_type": "single-stim",
                "stimulus": "<div class = imageBox><img class = image src = img/Pmask2.jpg </img></div>",
                "trial_id": "mask",
                "internal_node_id": "0.0-84.0",
                "time_elapsed": 158151,
                "key_press": -1,
                "trial_index": 84
            },
            {
                "rt": -1,
                "trial_type": "single-stim",
                "stimulus": "<div class = imageBox><img class = image src = img/line_images/5_al_02_02.png </img></div>",
                "trial_id": "probe",
                "internal_node_id": "0.0-85.0",
                "time_elapsed": 159355,
                "key_press": -1,
                "trial_index": 85
            },
            {
                "rt": 265,
                "trial_type": "single-stim",
                "stimulus": "<div class = centerbox style = text-align:center><p style = font-size:50px>Same or different? </p></div>",
                "trial_id": "response_line",
                "internal_node_id": "0.0-86.0",
                "correct": true,
                "time_elapsed": 160621,
                "key_press": 48,
                "alignment": [
                    "aligned"
                ],
                "congruency": [
                    "congruent"
                ],
                "response": [
                    "different"
                ],
                "trial_index": 86
            },
            {
                "rt": -1,
                "trial_type": "single-stim",
                "stimulus": "<div class = imageBox><img class = image src = img/line_images/7_target_01_01.png </img></div>",
                "trial_id": "target",
                "internal_node_id": "0.0-87.0",
                "time_elapsed": 161828,
                "key_press": -1,
                "trial_index": 87
            },
            {
                "rt": -1,
                "trial_type": "single-stim",
                "stimulus": "<div class = imageBox><img class = image src = img/Pmask2.jpg </img></div>",
                "trial_id": "mask",
                "internal_node_id": "0.0-88.0",
                "time_elapsed": 163232,
                "key_press": -1,
                "trial_index": 88
            },
            {
                "rt": -1,
                "trial_type": "single-stim",
                "stimulus": "<div class = imageBox><img class = image src = img/line_images/7_mis_01_01.png </img></div>",
                "trial_id": "probe",
                "internal_node_id": "0.0-89.0",
                "time_elapsed": 164436,
                "key_press": -1,
                "trial_index": 89
            },
            {
                "rt": 193,
                "trial_type": "single-stim",
                "stimulus": "<div class = centerbox style = text-align:center><p style = font-size:50px>Same or different? </p></div>",
                "trial_id": "response_line",
                "internal_node_id": "0.0-90.0",
                "correct": false,
                "time_elapsed": 165631,
                "key_press": 48,
                "alignment": [
                    "misaligned"
                ],
                "congruency": [
                    "congruent"
                ],
                "response": [
                    "same"
                ],
                "trial_index": 90
            },
            {
                "rt": -1,
                "trial_type": "single-stim",
                "stimulus": "<div class = imageBox><img class = image src = img/line_images/18_target_01_01.png </img></div>",
                "trial_id": "target",
                "internal_node_id": "0.0-91.0",
                "time_elapsed": 166835,
                "key_press": -1,
                "trial_index": 91
            },
            {
                "rt": -1,
                "trial_type": "single-stim",
                "stimulus": "<div class = imageBox><img class = image src = img/Pmask5.jpg </img></div>",
                "trial_id": "mask",
                "internal_node_id": "0.0-92.0",
                "time_elapsed": 168239,
                "key_press": -1,
                "trial_index": 92
            },
            {
                "rt": -1,
                "trial_type": "single-stim",
                "stimulus": "<div class = imageBox><img class = image src = img/line_images/18_mis_02_01.png </img></div>",
                "trial_id": "probe",
                "internal_node_id": "0.0-93.0",
                "time_elapsed": 169444,
                "key_press": -1,
                "trial_index": 93
            },
            {
                "rt": 135,
                "trial_type": "single-stim",
                "stimulus": "<div class = centerbox style = text-align:center><p style = font-size:50px>Same or different? </p></div>",
                "trial_id": "response_line",
                "internal_node_id": "0.0-94.0",
                "correct": true,
                "time_elapsed": 170583,
                "key_press": 48,
                "alignment": [
                    "misaligned"
                ],
                "congruency": [
                    "incongruent"
                ],
                "response": [
                    "different"
                ],
                "trial_index": 94
            },
            {
                "rt": -1,
                "trial_type": "single-stim",
                "stimulus": "<div class = imageBox><img class = image src = img/line_images/15_target_01_01.png </img></div>",
                "trial_id": "target",
                "internal_node_id": "0.0-95.0",
                "time_elapsed": 171786,
                "key_press": -1,
                "trial_index": 95
            },
            {
                "rt": -1,
                "trial_type": "single-stim",
                "stimulus": "<div class = imageBox><img class = image src = img/Pmask1.jpg </img></div>",
                "trial_id": "mask",
                "internal_node_id": "0.0-96.0",
                "time_elapsed": 173190,
                "key_press": -1,
                "trial_index": 96
            },
            {
                "rt": -1,
                "trial_type": "single-stim",
                "stimulus": "<div class = imageBox><img class = image src = img/line_images/15_al_02_02.png </img></div>",
                "trial_id": "probe",
                "internal_node_id": "0.0-97.0",
                "time_elapsed": 174392,
                "key_press": -1,
                "trial_index": 97
            },
            {
                "rt": 171,
                "trial_type": "single-stim",
                "stimulus": "<div class = centerbox style = text-align:center><p style = font-size:50px>Same or different? </p></div>",
                "trial_id": "response_line",
                "internal_node_id": "0.0-98.0",
                "correct": true,
                "time_elapsed": 175565,
                "key_press": 48,
                "alignment": [
                    "aligned"
                ],
                "congruency": [
                    "congruent"
                ],
                "response": [
                    "different"
                ],
                "trial_index": 98
            },
            {
                "rt": -1,
                "trial_type": "single-stim",
                "stimulus": "<div class = imageBox><img class = image src = img/line_images/4_target_01_01.png </img></div>",
                "trial_id": "target",
                "internal_node_id": "0.0-99.0",
                "time_elapsed": 176768,
                "key_press": -1,
                "trial_index": 99
            },
            {
                "rt": -1,
                "trial_type": "single-stim",
                "stimulus": "<div class = imageBox><img class = image src = img/Pmask5.jpg </img></div>",
                "trial_id": "mask",
                "internal_node_id": "0.0-100.0",
                "time_elapsed": 178172,
                "key_press": -1,
                "trial_index": 100
            },
            {
                "rt": -1,
                "trial_type": "single-stim",
                "stimulus": "<div class = imageBox><img class = image src = img/line_images/4_al_02_01.png </img></div>",
                "trial_id": "probe",
                "internal_node_id": "0.0-101.0",
                "time_elapsed": 179374,
                "key_press": -1,
                "trial_index": 101
            },
            {
                "rt": 26,
                "trial_type": "single-stim",
                "stimulus": "<div class = centerbox style = text-align:center><p style = font-size:50px>Same or different? </p></div>",
                "trial_id": "response_line",
                "internal_node_id": "0.0-102.0",
                "correct": true,
                "time_elapsed": 180401,
                "key_press": 48,
                "alignment": [
                    "aligned"
                ],
                "congruency": [
                    "incongruent"
                ],
                "response": [
                    "different"
                ],
                "trial_index": 102
            },
            {
                "rt": -1,
                "trial_type": "single-stim",
                "stimulus": "<div class = imageBox><img class = image src = img/line_images/20_target_01_01.png </img></div>",
                "trial_id": "target",
                "internal_node_id": "0.0-103.0",
                "time_elapsed": 181604,
                "key_press": -1,
                "trial_index": 103
            },
            {
                "rt": -1,
                "trial_type": "single-stim",
                "stimulus": "<div class = imageBox><img class = image src = img/Pmask4.jpg </img></div>",
                "trial_id": "mask",
                "internal_node_id": "0.0-104.0",
                "time_elapsed": 183006,
                "key_press": -1,
                "trial_index": 104
            },
            {
                "rt": -1,
                "trial_type": "single-stim",
                "stimulus": "<div class = imageBox><img class = image src = img/line_images/20_al_01_01.png </img></div>",
                "trial_id": "probe",
                "internal_node_id": "0.0-105.0",
                "time_elapsed": 184210,
                "key_press": -1,
                "trial_index": 105
            },
            {
                "rt": 99,
                "trial_type": "single-stim",
                "stimulus": "<div class = centerbox style = text-align:center><p style = font-size:50px>Same or different? </p></div>",
                "trial_id": "response_line",
                "internal_node_id": "0.0-106.0",
                "correct": true,
                "time_elapsed": 185311,
                "key_press": 49,
                "alignment": [
                    "aligned"
                ],
                "congruency": [
                    "congruent"
                ],
                "response": [
                    "same"
                ],
                "trial_index": 106
            },
            {
                "rt": -1,
                "trial_type": "single-stim",
                "stimulus": "<div class = imageBox><img class = image src = img/line_images/14_target_01_01.png </img></div>",
                "trial_id": "target",
                "internal_node_id": "0.0-107.0",
                "time_elapsed": 186518,
                "key_press": -1,
                "trial_index": 107
            },
            {
                "rt": -1,
                "trial_type": "single-stim",
                "stimulus": "<div class = imageBox><img class = image src = img/Pmask5.jpg </img></div>",
                "trial_id": "mask",
                "internal_node_id": "0.0-108.0",
                "time_elapsed": 187922,
                "key_press": -1,
                "trial_index": 108
            },
            {
                "rt": -1,
                "trial_type": "single-stim",
                "stimulus": "<div class = imageBox><img class = image src = img/line_images/14_mis_01_02.png </img></div>",
                "trial_id": "probe",
                "internal_node_id": "0.0-109.0",
                "time_elapsed": 189126,
                "key_press": -1,
                "trial_index": 109
            },
            {
                "rt": 157,
                "trial_type": "single-stim",
                "stimulus": "<div class = centerbox style = text-align:center><p style = font-size:50px>Same or different? </p></div>",
                "trial_id": "response_line",
                "internal_node_id": "0.0-110.0",
                "correct": false,
                "time_elapsed": 190285,
                "key_press": 48,
                "alignment": [
                    "misaligned"
                ],
                "congruency": [
                    "incongruent"
                ],
                "response": [
                    "same"
                ],
                "trial_index": 110
            },
            {
                "rt": -1,
                "trial_type": "single-stim",
                "stimulus": "<div class = imageBox><img class = image src = img/line_images/12_target_01_01.png </img></div>",
                "trial_id": "target",
                "internal_node_id": "0.0-111.0",
                "time_elapsed": 191491,
                "key_press": -1,
                "trial_index": 111
            },
            {
                "rt": -1,
                "trial_type": "single-stim",
                "stimulus": "<div class = imageBox><img class = image src = img/Pmask5.jpg </img></div>",
                "trial_id": "mask",
                "internal_node_id": "0.0-112.0",
                "time_elapsed": 192894,
                "key_press": -1,
                "trial_index": 112
            },
            {
                "rt": -1,
                "trial_type": "single-stim",
                "stimulus": "<div class = imageBox><img class = image src = img/line_images/12_mis_01_02.png </img></div>",
                "trial_id": "probe",
                "internal_node_id": "0.0-113.0",
                "time_elapsed": 194096,
                "key_press": -1,
                "trial_index": 113
            },
            {
                "rt": 1371,
                "trial_type": "single-stim",
                "stimulus": "<div class = centerbox style = text-align:center><p style = font-size:50px>Same or different? </p></div>",
                "trial_id": "response_line",
                "internal_node_id": "0.0-114.0",
                "correct": false,
                "time_elapsed": 196469,
                "key_press": 48,
                "alignment": [
                    "misaligned"
                ],
                "congruency": [
                    "incongruent"
                ],
                "response": [
                    "same"
                ],
                "trial_index": 114
            },
            {
                "rt": -1,
                "trial_type": "single-stim",
                "stimulus": "<div class = imageBox><img class = image src = img/line_images/15_target_01_01.png </img></div>",
                "trial_id": "target",
                "internal_node_id": "0.0-115.0",
                "time_elapsed": 197674,
                "key_press": -1,
                "trial_index": 115
            },
            {
                "rt": -1,
                "trial_type": "single-stim",
                "stimulus": "<div class = imageBox><img class = image src = img/Pmask3.jpg </img></div>",
                "trial_id": "mask",
                "internal_node_id": "0.0-116.0",
                "time_elapsed": 199078,
                "key_press": -1,
                "trial_index": 116
            },
            {
                "rt": -1,
                "trial_type": "single-stim",
                "stimulus": "<div class = imageBox><img class = image src = img/line_images/15_al_02_01.png </img></div>",
                "trial_id": "probe",
                "internal_node_id": "0.0-117.0",
                "time_elapsed": 200281,
                "key_press": -1,
                "trial_index": 117
            },
            {
                "rt": 321,
                "trial_type": "single-stim",
                "stimulus": "<div class = centerbox style = text-align:center><p style = font-size:50px>Same or different? </p></div>",
                "trial_id": "response_line",
                "internal_node_id": "0.0-118.0",
                "correct": true,
                "time_elapsed": 201605,
                "key_press": 48,
                "alignment": [
                    "aligned"
                ],
                "congruency": [
                    "incongruent"
                ],
                "response": [
                    "different"
                ],
                "trial_index": 118
            },
            {
                "rt": -1,
                "trial_type": "single-stim",
                "stimulus": "<div class = imageBox><img class = image src = img/line_images/9_target_01_01.png </img></div>",
                "trial_id": "target",
                "internal_node_id": "0.0-119.0",
                "time_elapsed": 202808,
                "key_press": -1,
                "trial_index": 119
            },
            {
                "rt": -1,
                "trial_type": "single-stim",
                "stimulus": "<div class = imageBox><img class = image src = img/Pmask2.jpg </img></div>",
                "trial_id": "mask",
                "internal_node_id": "0.0-120.0",
                "time_elapsed": 204211,
                "key_press": -1,
                "trial_index": 120
            },
            {
                "rt": -1,
                "trial_type": "single-stim",
                "stimulus": "<div class = imageBox><img class = image src = img/line_images/9_mis_01_01.png </img></div>",
                "trial_id": "probe",
                "internal_node_id": "0.0-121.0",
                "time_elapsed": 205414,
                "key_press": -1,
                "trial_index": 121
            },
            {
                "rt": 280,
                "trial_type": "single-stim",
                "stimulus": "<div class = centerbox style = text-align:center><p style = font-size:50px>Same or different? </p></div>",
                "trial_id": "response_line",
                "internal_node_id": "0.0-122.0",
                "correct": false,
                "time_elapsed": 206697,
                "key_press": 48,
                "alignment": [
                    "misaligned"
                ],
                "congruency": [
                    "congruent"
                ],
                "response": [
                    "same"
                ],
                "trial_index": 122
            },
            {
                "rt": -1,
                "trial_type": "single-stim",
                "stimulus": "<div class = imageBox><img class = image src = img/line_images/11_target_01_01.png </img></div>",
                "trial_id": "target",
                "internal_node_id": "0.0-123.0",
                "time_elapsed": 207908,
                "key_press": -1,
                "trial_index": 123
            },
            {
                "rt": -1,
                "trial_type": "single-stim",
                "stimulus": "<div class = imageBox><img class = image src = img/Pmask4.jpg </img></div>",
                "trial_id": "mask",
                "internal_node_id": "0.0-124.0",
                "time_elapsed": 209320,
                "key_press": -1,
                "trial_index": 124
            },
            {
                "rt": -1,
                "trial_type": "single-stim",
                "stimulus": "<div class = imageBox><img class = image src = img/line_images/11_al_02_02.png </img></div>",
                "trial_id": "probe",
                "internal_node_id": "0.0-125.0",
                "time_elapsed": 210524,
                "key_press": -1,
                "trial_index": 125
            },
            {
                "rt": 358,
                "trial_type": "single-stim",
                "stimulus": "<div class = centerbox style = text-align:center><p style = font-size:50px>Same or different? </p></div>",
                "trial_id": "response_line",
                "internal_node_id": "0.0-126.0",
                "correct": true,
                "time_elapsed": 211885,
                "key_press": 48,
                "alignment": [
                    "aligned"
                ],
                "congruency": [
                    "congruent"
                ],
                "response": [
                    "different"
                ],
                "trial_index": 126
            },
            {
                "rt": -1,
                "trial_type": "single-stim",
                "stimulus": "<div class = imageBox><img class = image src = img/line_images/15_target_01_01.png </img></div>",
                "trial_id": "target",
                "internal_node_id": "0.0-127.0",
                "time_elapsed": 213087,
                "key_press": -1,
                "trial_index": 127
            },
            {
                "rt": -1,
                "trial_type": "single-stim",
                "stimulus": "<div class = imageBox><img class = image src = img/Pmask4.jpg </img></div>",
                "trial_id": "mask",
                "internal_node_id": "0.0-128.0",
                "time_elapsed": 214489,
                "key_press": -1,
                "trial_index": 128
            },
            {
                "rt": -1,
                "trial_type": "single-stim",
                "stimulus": "<div class = imageBox><img class = image src = img/line_images/15_mis_01_02.png </img></div>",
                "trial_id": "probe",
                "internal_node_id": "0.0-129.0",
                "time_elapsed": 215692,
                "key_press": -1,
                "trial_index": 129
            },
            {
                "rt": 122,
                "trial_type": "single-stim",
                "stimulus": "<div class = centerbox style = text-align:center><p style = font-size:50px>Same or different? </p></div>",
                "trial_id": "response_line",
                "internal_node_id": "0.0-130.0",
                "correct": false,
                "time_elapsed": 216817,
                "key_press": 48,
                "alignment": [
                    "misaligned"
                ],
                "congruency": [
                    "incongruent"
                ],
                "response": [
                    "same"
                ],
                "trial_index": 130
            },
            {
                "rt": -1,
                "trial_type": "single-stim",
                "stimulus": "<div class = imageBox><img class = image src = img/line_images/8_target_01_01.png </img></div>",
                "trial_id": "target",
                "internal_node_id": "0.0-131.0",
                "time_elapsed": 218020,
                "key_press": -1,
                "trial_index": 131
            },
            {
                "rt": -1,
                "trial_type": "single-stim",
                "stimulus": "<div class = imageBox><img class = image src = img/Pmask3.jpg </img></div>",
                "trial_id": "mask",
                "internal_node_id": "0.0-132.0",
                "time_elapsed": 219423,
                "key_press": -1,
                "trial_index": 132
            },
            {
                "rt": -1,
                "trial_type": "single-stim",
                "stimulus": "<div class = imageBox><img class = image src = img/line_images/8_al_02_02.png </img></div>",
                "trial_id": "probe",
                "internal_node_id": "0.0-133.0",
                "time_elapsed": 220628,
                "key_press": -1,
                "trial_index": 133
            },
            {
                "rt": 157,
                "trial_type": "single-stim",
                "stimulus": "<div class = centerbox style = text-align:center><p style = font-size:50px>Same or different? </p></div>",
                "trial_id": "response_line",
                "internal_node_id": "0.0-134.0",
                "correct": false,
                "time_elapsed": 221789,
                "key_press": 49,
                "alignment": [
                    "aligned"
                ],
                "congruency": [
                    "congruent"
                ],
                "response": [
                    "different"
                ],
                "trial_index": 134
            },
            {
                "rt": -1,
                "trial_type": "single-stim",
                "stimulus": "<div class = imageBox><img class = image src = img/line_images/20_target_01_01.png </img></div>",
                "trial_id": "target",
                "internal_node_id": "0.0-135.0",
                "time_elapsed": 222992,
                "key_press": -1,
                "trial_index": 135
            },
            {
                "rt": -1,
                "trial_type": "single-stim",
                "stimulus": "<div class = imageBox><img class = image src = img/Pmask3.jpg </img></div>",
                "trial_id": "mask",
                "internal_node_id": "0.0-136.0",
                "time_elapsed": 224395,
                "key_press": -1,
                "trial_index": 136
            },
            {
                "rt": -1,
                "trial_type": "single-stim",
                "stimulus": "<div class = imageBox><img class = image src = img/line_images/20_mis_02_01.png </img></div>",
                "trial_id": "probe",
                "internal_node_id": "0.0-137.0",
                "time_elapsed": 225597,
                "key_press": -1,
                "trial_index": 137
            },
            {
                "rt": 68,
                "trial_type": "single-stim",
                "stimulus": "<div class = centerbox style = text-align:center><p style = font-size:50px>Same or different? </p></div>",
                "trial_id": "response_line",
                "internal_node_id": "0.0-138.0",
                "correct": true,
                "time_elapsed": 226668,
                "key_press": 48,
                "alignment": [
                    "misaligned"
                ],
                "congruency": [
                    "incongruent"
                ],
                "response": [
                    "different"
                ],
                "trial_index": 138
            },
            {
                "rt": -1,
                "trial_type": "single-stim",
                "stimulus": "<div class = imageBox><img class = image src = img/line_images/13_target_01_01.png </img></div>",
                "trial_id": "target",
                "internal_node_id": "0.0-139.0",
                "time_elapsed": 227872,
                "key_press": -1,
                "trial_index": 139
            },
            {
                "rt": -1,
                "trial_type": "single-stim",
                "stimulus": "<div class = imageBox><img class = image src = img/Pmask5.jpg </img></div>",
                "trial_id": "mask",
                "internal_node_id": "0.0-140.0",
                "time_elapsed": 229277,
                "key_press": -1,
                "trial_index": 140
            },
            {
                "rt": -1,
                "trial_type": "single-stim",
                "stimulus": "<div class = imageBox><img class = image src = img/line_images/13_mis_02_01.png </img></div>",
                "trial_id": "probe",
                "internal_node_id": "0.0-141.0",
                "time_elapsed": 230483,
                "key_press": -1,
                "trial_index": 141
            },
            {
                "rt": 203,
                "trial_type": "single-stim",
                "stimulus": "<div class = centerbox style = text-align:center><p style = font-size:50px>Same or different? </p></div>",
                "trial_id": "response_line",
                "internal_node_id": "0.0-142.0",
                "correct": true,
                "time_elapsed": 231688,
                "key_press": 48,
                "alignment": [
                    "misaligned"
                ],
                "congruency": [
                    "incongruent"
                ],
                "response": [
                    "different"
                ],
                "trial_index": 142
            },
            {
                "rt": -1,
                "trial_type": "single-stim",
                "stimulus": "<div class = imageBox><img class = image src = img/line_images/19_target_01_01.png </img></div>",
                "trial_id": "target",
                "internal_node_id": "0.0-143.0",
                "time_elapsed": 232891,
                "key_press": -1,
                "trial_index": 143
            },
            {
                "rt": -1,
                "trial_type": "single-stim",
                "stimulus": "<div class = imageBox><img class = image src = img/Pmask5.jpg </img></div>",
                "trial_id": "mask",
                "internal_node_id": "0.0-144.0",
                "time_elapsed": 234294,
                "key_press": -1,
                "trial_index": 144
            },
            {
                "rt": -1,
                "trial_type": "single-stim",
                "stimulus": "<div class = imageBox><img class = image src = img/line_images/19_al_02_01.png </img></div>",
                "trial_id": "probe",
                "internal_node_id": "0.0-145.0",
                "time_elapsed": 235496,
                "key_press": -1,
                "trial_index": 145
            },
            {
                "rt": 226,
                "trial_type": "single-stim",
                "stimulus": "<div class = centerbox style = text-align:center><p style = font-size:50px>Same or different? </p></div>",
                "trial_id": "response_line",
                "internal_node_id": "0.0-146.0",
                "correct": true,
                "time_elapsed": 236725,
                "key_press": 48,
                "alignment": [
                    "aligned"
                ],
                "congruency": [
                    "incongruent"
                ],
                "response": [
                    "different"
                ],
                "trial_index": 146
            },
            {
                "rt": -1,
                "trial_type": "single-stim",
                "stimulus": "<div class = imageBox><img class = image src = img/line_images/12_target_01_01.png </img></div>",
                "trial_id": "target",
                "internal_node_id": "0.0-147.0",
                "time_elapsed": 237929,
                "key_press": -1,
                "trial_index": 147
            },
            {
                "rt": -1,
                "trial_type": "single-stim",
                "stimulus": "<div class = imageBox><img class = image src = img/Pmask3.jpg </img></div>",
                "trial_id": "mask",
                "internal_node_id": "0.0-148.0",
                "time_elapsed": 239332,
                "key_press": -1,
                "trial_index": 148
            },
            {
                "rt": -1,
                "trial_type": "single-stim",
                "stimulus": "<div class = imageBox><img class = image src = img/line_images/12_mis_01_01.png </img></div>",
                "trial_id": "probe",
                "internal_node_id": "0.0-149.0",
                "time_elapsed": 240539,
                "key_press": -1,
                "trial_index": 149
            },
            {
                "rt": 155,
                "trial_type": "single-stim",
                "stimulus": "<div class = centerbox style = text-align:center><p style = font-size:50px>Same or different? </p></div>",
                "trial_id": "response_line",
                "internal_node_id": "0.0-150.0",
                "correct": false,
                "time_elapsed": 241696,
                "key_press": 48,
                "alignment": [
                    "misaligned"
                ],
                "congruency": [
                    "congruent"
                ],
                "response": [
                    "same"
                ],
                "trial_index": 150
            },
            {
                "rt": -1,
                "trial_type": "single-stim",
                "stimulus": "<div class = imageBox><img class = image src = img/line_images/14_target_01_01.png </img></div>",
                "trial_id": "target",
                "internal_node_id": "0.0-151.0",
                "time_elapsed": 242900,
                "key_press": -1,
                "trial_index": 151
            },
            {
                "rt": -1,
                "trial_type": "single-stim",
                "stimulus": "<div class = imageBox><img class = image src = img/Pmask5.jpg </img></div>",
                "trial_id": "mask",
                "internal_node_id": "0.0-152.0",
                "time_elapsed": 244303,
                "key_press": -1,
                "trial_index": 152
            },
            {
                "rt": -1,
                "trial_type": "single-stim",
                "stimulus": "<div class = imageBox><img class = image src = img/line_images/14_al_01_01.png </img></div>",
                "trial_id": "probe",
                "internal_node_id": "0.0-153.0",
                "time_elapsed": 245505,
                "key_press": -1,
                "trial_index": 153
            },
            {
                "rt": 504,
                "trial_type": "single-stim",
                "stimulus": "<div class = centerbox style = text-align:center><p style = font-size:50px>Same or different? </p></div>",
                "trial_id": "response_line",
                "internal_node_id": "0.0-154.0",
                "correct": true,
                "time_elapsed": 247013,
                "key_press": 49,
                "alignment": [
                    "aligned"
                ],
                "congruency": [
                    "congruent"
                ],
                "response": [
                    "same"
                ],
                "trial_index": 154
            },
            {
                "rt": -1,
                "trial_type": "single-stim",
                "stimulus": "<div class = imageBox><img class = image src = img/line_images/12_target_01_01.png </img></div>",
                "trial_id": "target",
                "internal_node_id": "0.0-155.0",
                "time_elapsed": 248217,
                "key_press": -1,
                "trial_index": 155
            },
            {
                "rt": -1,
                "trial_type": "single-stim",
                "stimulus": "<div class = imageBox><img class = image src = img/Pmask5.jpg </img></div>",
                "trial_id": "mask",
                "internal_node_id": "0.0-156.0",
                "time_elapsed": 249621,
                "key_press": -1,
                "trial_index": 156
            },
            {
                "rt": -1,
                "trial_type": "single-stim",
                "stimulus": "<div class = imageBox><img class = image src = img/line_images/12_al_01_01.png </img></div>",
                "trial_id": "probe",
                "internal_node_id": "0.0-157.0",
                "time_elapsed": 250823,
                "key_press": -1,
                "trial_index": 157
            },
            {
                "rt": 128,
                "trial_type": "single-stim",
                "stimulus": "<div class = centerbox style = text-align:center><p style = font-size:50px>Same or different? </p></div>",
                "trial_id": "response_line",
                "internal_node_id": "0.0-158.0",
                "correct": true,
                "time_elapsed": 251953,
                "key_press": 49,
                "alignment": [
                    "aligned"
                ],
                "congruency": [
                    "congruent"
                ],
                "response": [
                    "same"
                ],
                "trial_index": 158
            },
            {
                "rt": -1,
                "trial_type": "single-stim",
                "stimulus": "<div class = imageBox><img class = image src = img/line_images/7_target_01_01.png </img></div>",
                "trial_id": "target",
                "internal_node_id": "0.0-159.0",
                "time_elapsed": 253157,
                "key_press": -1,
                "trial_index": 159
            },
            {
                "rt": -1,
                "trial_type": "single-stim",
                "stimulus": "<div class = imageBox><img class = image src = img/Pmask1.jpg </img></div>",
                "trial_id": "mask",
                "internal_node_id": "0.0-160.0",
                "time_elapsed": 254561,
                "key_press": -1,
                "trial_index": 160
            },
            {
                "rt": -1,
                "trial_type": "single-stim",
                "stimulus": "<div class = imageBox><img class = image src = img/line_images/7_al_02_01.png </img></div>",
                "trial_id": "probe",
                "internal_node_id": "0.0-161.0",
                "time_elapsed": 255763,
                "key_press": -1,
                "trial_index": 161
            },
            {
                "rt": 286,
                "trial_type": "single-stim",
                "stimulus": "<div class = centerbox style = text-align:center><p style = font-size:50px>Same or different? </p></div>",
                "trial_id": "response_line",
                "internal_node_id": "0.0-162.0",
                "correct": false,
                "time_elapsed": 257052,
                "key_press": 49,
                "alignment": [
                    "aligned"
                ],
                "congruency": [
                    "incongruent"
                ],
                "response": [
                    "different"
                ],
                "trial_index": 162
            },
            {
                "rt": -1,
                "trial_type": "single-stim",
                "stimulus": "<div class = imageBox><img class = image src = img/line_images/15_target_01_01.png </img></div>",
                "trial_id": "target",
                "internal_node_id": "0.0-163.0",
                "time_elapsed": 258255,
                "key_press": -1,
                "trial_index": 163
            },
            {
                "rt": -1,
                "trial_type": "single-stim",
                "stimulus": "<div class = imageBox><img class = image src = img/Pmask3.jpg </img></div>",
                "trial_id": "mask",
                "internal_node_id": "0.0-164.0",
                "time_elapsed": 259658,
                "key_press": -1,
                "trial_index": 164
            },
            {
                "rt": -1,
                "trial_type": "single-stim",
                "stimulus": "<div class = imageBox><img class = image src = img/line_images/15_al_01_02.png </img></div>",
                "trial_id": "probe",
                "internal_node_id": "0.0-165.0",
                "time_elapsed": 260862,
                "key_press": -1,
                "trial_index": 165
            },
            {
                "rt": 148,
                "trial_type": "single-stim",
                "stimulus": "<div class = centerbox style = text-align:center><p style = font-size:50px>Same or different? </p></div>",
                "trial_id": "response_line",
                "internal_node_id": "0.0-166.0",
                "correct": false,
                "time_elapsed": 262014,
                "key_press": 48,
                "alignment": [
                    "aligned"
                ],
                "congruency": [
                    "incongruent"
                ],
                "response": [
                    "same"
                ],
                "trial_index": 166
            },
            {
                "rt": -1,
                "trial_type": "single-stim",
                "stimulus": "<div class = imageBox><img class = image src = img/line_images/16_target_01_01.png </img></div>",
                "trial_id": "target",
                "internal_node_id": "0.0-167.0",
                "time_elapsed": 263218,
                "key_press": -1,
                "trial_index": 167
            },
            {
                "rt": -1,
                "trial_type": "single-stim",
                "stimulus": "<div class = imageBox><img class = image src = img/Pmask1.jpg </img></div>",
                "trial_id": "mask",
                "internal_node_id": "0.0-168.0",
                "time_elapsed": 264621,
                "key_press": -1,
                "trial_index": 168
            },
            {
                "rt": -1,
                "trial_type": "single-stim",
                "stimulus": "<div class = imageBox><img class = image src = img/line_images/16_mis_01_02.png </img></div>",
                "trial_id": "probe",
                "internal_node_id": "0.0-169.0",
                "time_elapsed": 265824,
                "key_press": -1,
                "trial_index": 169
            },
            {
                "rt": 97,
                "trial_type": "single-stim",
                "stimulus": "<div class = centerbox style = text-align:center><p style = font-size:50px>Same or different? </p></div>",
                "trial_id": "response_line",
                "internal_node_id": "0.0-170.0",
                "correct": false,
                "time_elapsed": 266925,
                "key_press": 48,
                "alignment": [
                    "misaligned"
                ],
                "congruency": [
                    "incongruent"
                ],
                "response": [
                    "same"
                ],
                "trial_index": 170
            },
            {
                "rt": -1,
                "trial_type": "single-stim",
                "stimulus": "<div class = imageBox><img class = image src = img/line_images/20_target_01_01.png </img></div>",
                "trial_id": "target",
                "internal_node_id": "0.0-171.0",
                "time_elapsed": 268129,
                "key_press": -1,
                "trial_index": 171
            },
            {
                "rt": -1,
                "trial_type": "single-stim",
                "stimulus": "<div class = imageBox><img class = image src = img/Pmask3.jpg </img></div>",
                "trial_id": "mask",
                "internal_node_id": "0.0-172.0",
                "time_elapsed": 269532,
                "key_press": -1,
                "trial_index": 172
            },
            {
                "rt": -1,
                "trial_type": "single-stim",
                "stimulus": "<div class = imageBox><img class = image src = img/line_images/20_mis_01_02.png </img></div>",
                "trial_id": "probe",
                "internal_node_id": "0.0-173.0",
                "time_elapsed": 270734,
                "key_press": -1,
                "trial_index": 173
            },
            {
                "rt": 29,
                "trial_type": "single-stim",
                "stimulus": "<div class = centerbox style = text-align:center><p style = font-size:50px>Same or different? </p></div>",
                "trial_id": "response_line",
                "internal_node_id": "0.0-174.0",
                "correct": false,
                "time_elapsed": 271767,
                "key_press": 48,
                "alignment": [
                    "misaligned"
                ],
                "congruency": [
                    "incongruent"
                ],
                "response": [
                    "same"
                ],
                "trial_index": 174
            },
            {
                "rt": -1,
                "trial_type": "single-stim",
                "stimulus": "<div class = imageBox><img class = image src = img/line_images/6_target_01_01.png </img></div>",
                "trial_id": "target",
                "internal_node_id": "0.0-175.0",
                "time_elapsed": 272971,
                "key_press": -1,
                "trial_index": 175
            },
            {
                "rt": -1,
                "trial_type": "single-stim",
                "stimulus": "<div class = imageBox><img class = image src = img/Pmask4.jpg </img></div>",
                "trial_id": "mask",
                "internal_node_id": "0.0-176.0",
                "time_elapsed": 274375,
                "key_press": -1,
                "trial_index": 176
            },
            {
                "rt": -1,
                "trial_type": "single-stim",
                "stimulus": "<div class = imageBox><img class = image src = img/line_images/6_mis_02_01.png </img></div>",
                "trial_id": "probe",
                "internal_node_id": "0.0-177.0",
                "time_elapsed": 275579,
                "key_press": -1,
                "trial_index": 177
            },
            {
                "rt": 223,
                "trial_type": "single-stim",
                "stimulus": "<div class = centerbox style = text-align:center><p style = font-size:50px>Same or different? </p></div>",
                "trial_id": "response_line",
                "internal_node_id": "0.0-178.0",
                "correct": true,
                "time_elapsed": 276804,
                "key_press": 48,
                "alignment": [
                    "misaligned"
                ],
                "congruency": [
                    "incongruent"
                ],
                "response": [
                    "different"
                ],
                "trial_index": 178
            },
            {
                "rt": -1,
                "trial_type": "single-stim",
                "stimulus": "<div class = imageBox><img class = image src = img/line_images/2_target_01_01.png </img></div>",
                "trial_id": "target",
                "internal_node_id": "0.0-179.0",
                "time_elapsed": 278007,
                "key_press": -1,
                "trial_index": 179
            },
            {
                "rt": -1,
                "trial_type": "single-stim",
                "stimulus": "<div class = imageBox><img class = image src = img/Pmask4.jpg </img></div>",
                "trial_id": "mask",
                "internal_node_id": "0.0-180.0",
                "time_elapsed": 279415,
                "key_press": -1,
                "trial_index": 180
            },
            {
                "rt": -1,
                "trial_type": "single-stim",
                "stimulus": "<div class = imageBox><img class = image src = img/line_images/2_mis_02_02.png </img></div>",
                "trial_id": "probe",
                "internal_node_id": "0.0-181.0",
                "time_elapsed": 280619,
                "key_press": -1,
                "trial_index": 181
            },
            {
                "rt": 325,
                "trial_type": "single-stim",
                "stimulus": "<div class = centerbox style = text-align:center><p style = font-size:50px>Same or different? </p></div>",
                "trial_id": "response_line",
                "internal_node_id": "0.0-182.0",
                "correct": true,
                "time_elapsed": 281947,
                "key_press": 48,
                "alignment": [
                    "misaligned"
                ],
                "congruency": [
                    "congruent"
                ],
                "response": [
                    "different"
                ],
                "trial_index": 182
            },
            {
                "rt": -1,
                "trial_type": "single-stim",
                "stimulus": "<div class = imageBox><img class = image src = img/line_images/10_target_01_01.png </img></div>",
                "trial_id": "target",
                "internal_node_id": "0.0-183.0",
                "time_elapsed": 283159,
                "key_press": -1,
                "trial_index": 183
            },
            {
                "rt": -1,
                "trial_type": "single-stim",
                "stimulus": "<div class = imageBox><img class = image src = img/Pmask3.jpg </img></div>",
                "trial_id": "mask",
                "internal_node_id": "0.0-184.0",
                "time_elapsed": 284562,
                "key_press": -1,
                "trial_index": 184
            },
            {
                "rt": -1,
                "trial_type": "single-stim",
                "stimulus": "<div class = imageBox><img class = image src = img/line_images/10_al_01_01.png </img></div>",
                "trial_id": "probe",
                "internal_node_id": "0.0-185.0",
                "time_elapsed": 285765,
                "key_press": -1,
                "trial_index": 185
            },
            {
                "rt": 192,
                "trial_type": "single-stim",
                "stimulus": "<div class = centerbox style = text-align:center><p style = font-size:50px>Same or different? </p></div>",
                "trial_id": "response_line",
                "internal_node_id": "0.0-186.0",
                "correct": false,
                "time_elapsed": 286961,
                "key_press": 48,
                "alignment": [
                    "aligned"
                ],
                "congruency": [
                    "congruent"
                ],
                "response": [
                    "same"
                ],
                "trial_index": 186
            },
            {
                "rt": -1,
                "trial_type": "single-stim",
                "stimulus": "<div class = imageBox><img class = image src = img/line_images/2_target_01_01.png </img></div>",
                "trial_id": "target",
                "internal_node_id": "0.0-187.0",
                "time_elapsed": 288180,
                "key_press": -1,
                "trial_index": 187
            },
            {
                "rt": -1,
                "trial_type": "single-stim",
                "stimulus": "<div class = imageBox><img class = image src = img/Pmask4.jpg </img></div>",
                "trial_id": "mask",
                "internal_node_id": "0.0-188.0",
                "time_elapsed": 289584,
                "key_press": -1,
                "trial_index": 188
            },
            {
                "rt": -1,
                "trial_type": "single-stim",
                "stimulus": "<div class = imageBox><img class = image src = img/line_images/2_al_01_02.png </img></div>",
                "trial_id": "probe",
                "internal_node_id": "0.0-189.0",
                "time_elapsed": 290787,
                "key_press": -1,
                "trial_index": 189
            },
            {
                "rt": 215,
                "trial_type": "single-stim",
                "stimulus": "<div class = centerbox style = text-align:center><p style = font-size:50px>Same or different? </p></div>",
                "trial_id": "response_line",
                "internal_node_id": "0.0-190.0",
                "correct": false,
                "time_elapsed": 292005,
                "key_press": 48,
                "alignment": [
                    "aligned"
                ],
                "congruency": [
                    "incongruent"
                ],
                "response": [
                    "same"
                ],
                "trial_index": 190
            },
            {
                "rt": -1,
                "trial_type": "single-stim",
                "stimulus": "<div class = imageBox><img class = image src = img/line_images/11_target_01_01.png </img></div>",
                "trial_id": "target",
                "internal_node_id": "0.0-191.0",
                "time_elapsed": 293208,
                "key_press": -1,
                "trial_index": 191
            },
            {
                "rt": -1,
                "trial_type": "single-stim",
                "stimulus": "<div class = imageBox><img class = image src = img/Pmask5.jpg </img></div>",
                "trial_id": "mask",
                "internal_node_id": "0.0-192.0",
                "time_elapsed": 294612,
                "key_press": -1,
                "trial_index": 192
            },
            {
                "rt": -1,
                "trial_type": "single-stim",
                "stimulus": "<div class = imageBox><img class = image src = img/line_images/11_al_01_01.png </img></div>",
                "trial_id": "probe",
                "internal_node_id": "0.0-193.0",
                "time_elapsed": 295815,
                "key_press": -1,
                "trial_index": 193
            },
            {
                "rt": 190,
                "trial_type": "single-stim",
                "stimulus": "<div class = centerbox style = text-align:center><p style = font-size:50px>Same or different? </p></div>",
                "trial_id": "response_line",
                "internal_node_id": "0.0-194.0",
                "correct": true,
                "time_elapsed": 297009,
                "key_press": 49,
                "alignment": [
                    "aligned"
                ],
                "congruency": [
                    "congruent"
                ],
                "response": [
                    "same"
                ],
                "trial_index": 194
            },
            {
                "rt": -1,
                "trial_type": "single-stim",
                "stimulus": "<div class = imageBox><img class = image src = img/line_images/11_target_01_01.png </img></div>",
                "trial_id": "target",
                "internal_node_id": "0.0-195.0",
                "time_elapsed": 298212,
                "key_press": -1,
                "trial_index": 195
            },
            {
                "rt": -1,
                "trial_type": "single-stim",
                "stimulus": "<div class = imageBox><img class = image src = img/Pmask1.jpg </img></div>",
                "trial_id": "mask",
                "internal_node_id": "0.0-196.0",
                "time_elapsed": 299616,
                "key_press": -1,
                "trial_index": 196
            },
            {
                "rt": -1,
                "trial_type": "single-stim",
                "stimulus": "<div class = imageBox><img class = image src = img/line_images/11_al_02_01.png </img></div>",
                "trial_id": "probe",
                "internal_node_id": "0.0-197.0",
                "time_elapsed": 300819,
                "key_press": -1,
                "trial_index": 197
            },
            {
                "rt": 65,
                "trial_type": "single-stim",
                "stimulus": "<div class = centerbox style = text-align:center><p style = font-size:50px>Same or different? </p></div>",
                "trial_id": "response_line",
                "internal_node_id": "0.0-198.0",
                "correct": true,
                "time_elapsed": 301899,
                "key_press": 48,
                "alignment": [
                    "aligned"
                ],
                "congruency": [
                    "incongruent"
                ],
                "response": [
                    "different"
                ],
                "trial_index": 198
            },
            {
                "rt": -1,
                "trial_type": "single-stim",
                "stimulus": "<div class = imageBox><img class = image src = img/line_images/20_target_01_01.png </img></div>",
                "trial_id": "target",
                "internal_node_id": "0.0-199.0",
                "time_elapsed": 303102,
                "key_press": -1,
                "trial_index": 199
            },
            {
                "rt": -1,
                "trial_type": "single-stim",
                "stimulus": "<div class = imageBox><img class = image src = img/Pmask1.jpg </img></div>",
                "trial_id": "mask",
                "internal_node_id": "0.0-200.0",
                "time_elapsed": 304506,
                "key_press": -1,
                "trial_index": 200
            },
            {
                "rt": -1,
                "trial_type": "single-stim",
                "stimulus": "<div class = imageBox><img class = image src = img/line_images/20_al_01_02.png </img></div>",
                "trial_id": "probe",
                "internal_node_id": "0.0-201.0",
                "time_elapsed": 305709,
                "key_press": -1,
                "trial_index": 201
            },
            {
                "rt": 164,
                "trial_type": "single-stim",
                "stimulus": "<div class = centerbox style = text-align:center><p style = font-size:50px>Same or different? </p></div>",
                "trial_id": "response_line",
                "internal_node_id": "0.0-202.0",
                "correct": false,
                "time_elapsed": 306874,
                "key_press": 48,
                "alignment": [
                    "aligned"
                ],
                "congruency": [
                    "incongruent"
                ],
                "response": [
                    "same"
                ],
                "trial_index": 202
            },
            {
                "rt": -1,
                "trial_type": "single-stim",
                "stimulus": "<div class = imageBox><img class = image src = img/line_images/20_target_01_01.png </img></div>",
                "trial_id": "target",
                "internal_node_id": "0.0-203.0",
                "time_elapsed": 308078,
                "key_press": -1,
                "trial_index": 203
            },
            {
                "rt": -1,
                "trial_type": "single-stim",
                "stimulus": "<div class = imageBox><img class = image src = img/Pmask1.jpg </img></div>",
                "trial_id": "mask",
                "internal_node_id": "0.0-204.0",
                "time_elapsed": 309482,
                "key_press": -1,
                "trial_index": 204
            },
            {
                "rt": -1,
                "trial_type": "single-stim",
                "stimulus": "<div class = imageBox><img class = image src = img/line_images/20_al_02_02.png </img></div>",
                "trial_id": "probe",
                "internal_node_id": "0.0-205.0",
                "time_elapsed": 310685,
                "key_press": -1,
                "trial_index": 205
            },
            {
                "rt": 5,
                "trial_type": "single-stim",
                "stimulus": "<div class = centerbox style = text-align:center><p style = font-size:50px>Same or different? </p></div>",
                "trial_id": "response_line",
                "internal_node_id": "0.0-206.0",
                "correct": true,
                "time_elapsed": 311695,
                "key_press": 48,
                "alignment": [
                    "aligned"
                ],
                "congruency": [
                    "congruent"
                ],
                "response": [
                    "different"
                ],
                "trial_index": 206
            },
            {
                "rt": -1,
                "trial_type": "single-stim",
                "stimulus": "<div class = imageBox><img class = image src = img/line_images/12_target_01_01.png </img></div>",
                "trial_id": "target",
                "internal_node_id": "0.0-207.0",
                "time_elapsed": 312898,
                "key_press": -1,
                "trial_index": 207
            },
            {
                "rt": -1,
                "trial_type": "single-stim",
                "stimulus": "<div class = imageBox><img class = image src = img/Pmask1.jpg </img></div>",
                "trial_id": "mask",
                "internal_node_id": "0.0-208.0",
                "time_elapsed": 314301,
                "key_press": -1,
                "trial_index": 208
            },
            {
                "rt": -1,
                "trial_type": "single-stim",
                "stimulus": "<div class = imageBox><img class = image src = img/line_images/12_al_02_02.png </img></div>",
                "trial_id": "probe",
                "internal_node_id": "0.0-209.0",
                "time_elapsed": 315504,
                "key_press": -1,
                "trial_index": 209
            },
            {
                "rt": 1769,
                "trial_type": "single-stim",
                "stimulus": "<div class = centerbox style = text-align:center><p style = font-size:50px>Same or different? </p></div>",
                "trial_id": "response_line",
                "internal_node_id": "0.0-210.0",
                "correct": true,
                "time_elapsed": 318275,
                "key_press": 48,
                "alignment": [
                    "aligned"
                ],
                "congruency": [
                    "congruent"
                ],
                "response": [
                    "different"
                ],
                "trial_index": 210
            },
            {
                "rt": -1,
                "trial_type": "single-stim",
                "stimulus": "<div class = imageBox><img class = image src = img/line_images/10_target_01_01.png </img></div>",
                "trial_id": "target",
                "internal_node_id": "0.0-211.0",
                "time_elapsed": 319479,
                "key_press": -1,
                "trial_index": 211
            },
            {
                "rt": -1,
