{
    "ApprovalTime": "2017-11-14T22:52:13Z",
    "AutoApprovalTime": "2017-11-16T22:51:14Z",
    "AssignmentId": "3VNL7UK1XFJREU2TX4SNA1X484WFT5",
    "WorkerId": "A1Z2X2TVQGJ14Y",
    "answers": {
        "data": [
            {
                "rt": -1,
                "trial_type": "text",
                "internal_node_id": "0.0-0.0",
                "time_elapsed": 1460,
                "key_press": 32,
                "trial_index": 0
            },
            {
                "rt": -1,
                "trial_type": "text",
                "internal_node_id": "0.0-1.0",
                "time_elapsed": 3771,
                "key_press": 32,
                "trial_index": 1
            },
            {
                "rt": -1,
                "trial_type": "single-stim",
                "stimulus": "<div class = imageBox><img class = image src = images/21_target_01_01.png </img></div>",
                "internal_node_id": "0.0-2.0",
                "time_elapsed": 5982,
                "key_press": -1,
                "trial_index": 2
            },
            {
                "rt": -1,
                "trial_type": "single-stim",
                "stimulus": "<div class = imageBox><img class = image src = images/Pmask1.jpg </img></div>",
                "trial_id": "mask",
                "internal_node_id": "0.0-3.0",
                "time_elapsed": 7389,
                "key_press": -1,
                "trial_index": 3
            },
            {
                "rt": -1,
                "trial_type": "single-stim",
                "stimulus": "<div class = imageBox><img class = image src = images/21_al_02_02.png </img></div>",
                "internal_node_id": "0.0-4.0",
                "time_elapsed": 8599,
                "key_press": -1,
                "trial_index": 4
            },
            {
                "rt": -1,
                "trial_type": "single-stim",
                "stimulus": "<div class = centerbox style = text-align:center><p style = font-size:40px>Same or different? </p></div>",
                "internal_node_id": "0.0-5.0",
                "time_elapsed": 10163,
                "key_press": 48,
                "trial_index": 5
            },
            {
                "rt": -1,
                "trial_type": "single-stim",
                "stimulus": "<div class = imageBox><img class = image src = images/21_target_01_01.png </img></div>",
                "internal_node_id": "0.0-6.0",
                "time_elapsed": 11372,
                "key_press": -1,
                "trial_index": 6
            },
            {
                "rt": -1,
                "trial_type": "single-stim",
                "stimulus": "<div class = imageBox><img class = image src = images/Pmask1.jpg </img></div>",
                "trial_id": "mask",
                "internal_node_id": "0.0-7.0",
                "time_elapsed": 12777,
                "key_press": -1,
                "trial_index": 7
            },
            {
                "rt": -1,
                "trial_type": "single-stim",
                "stimulus": "<div class = imageBox><img class = image src = images/21_al_02_02.png </img></div>",
                "internal_node_id": "0.0-8.0",
                "time_elapsed": 13984,
                "key_press": -1,
                "trial_index": 8
            },
            {
                "rt": -1,
                "trial_type": "single-stim",
                "stimulus": "<div class = centerbox style = text-align:center><p style = font-size:40px>Same or different? </p></div>",
                "internal_node_id": "0.0-9.0",
                "time_elapsed": 15332,
                "key_press": 48,
                "trial_index": 9
            },
            {
                "rt": -1,
                "trial_type": "single-stim",
                "stimulus": "<div class = imageBox><img class = image src = images/21_target_01_01.png </img></div>",
                "internal_node_id": "0.0-10.0",
                "time_elapsed": 16541,
                "key_press": -1,
                "trial_index": 10
            },
            {
                "rt": -1,
                "trial_type": "single-stim",
                "stimulus": "<div class = imageBox><img class = image src = images/Pmask1.jpg </img></div>",
                "trial_id": "mask",
                "internal_node_id": "0.0-11.0",
                "time_elapsed": 17947,
                "key_press": -1,
                "trial_index": 11
            },
            {
                "rt": -1,
                "trial_type": "single-stim",
                "stimulus": "<div class = imageBox><img class = image src = images/21_al_02_02.png </img></div>",
                "internal_node_id": "0.0-12.0",
                "time_elapsed": 19157,
                "key_press": -1,
                "trial_index": 12
            },
            {
                "rt": -1,
                "trial_type": "single-stim",
                "stimulus": "<div class = centerbox style = text-align:center><p style = font-size:40px>Same or different? </p></div>",
                "internal_node_id": "0.0-13.0",
                "time_elapsed": 20528,
                "key_press": 48,
                "trial_index": 13
            },
            {
                "rt": -1,
                "trial_type": "single-stim",
                "stimulus": "<div class = imageBox><img class = image src = images/21_target_01_01.png </img></div>",
                "internal_node_id": "0.0-14.0",
                "time_elapsed": 21739,
                "key_press": -1,
                "trial_index": 14
            },
            {
                "rt": -1,
                "trial_type": "single-stim",
                "stimulus": "<div class = imageBox><img class = image src = images/Pmask3.jpg </img></div>",
                "trial_id": "mask",
                "internal_node_id": "0.0-15.0",
                "time_elapsed": 23146,
                "key_press": -1,
                "trial_index": 15
            },
            {
                "rt": -1,
                "trial_type": "single-stim",
                "stimulus": "<div class = imageBox><img class = image src = images/21_al_02_02.png </img></div>",
                "internal_node_id": "0.0-16.0",
                "time_elapsed": 24357,
                "key_press": -1,
                "trial_index": 16
            },
            {
                "rt": -1,
                "trial_type": "single-stim",
                "stimulus": "<div class = centerbox style = text-align:center><p style = font-size:40px>Same or different? </p></div>",
                "internal_node_id": "0.0-17.0",
                "time_elapsed": 25636,
                "key_press": 48,
                "trial_index": 17
            },
            {
                "rt": -1,
                "trial_type": "single-stim",
                "stimulus": "<div class = imageBox><img class = image src = images/21_target_01_01.png </img></div>",
                "internal_node_id": "0.0-18.0",
                "time_elapsed": 26842,
                "key_press": -1,
                "trial_index": 18
            },
            {
                "rt": -1,
                "trial_type": "single-stim",
                "stimulus": "<div class = imageBox><img class = image src = images/Pmask4.jpg </img></div>",
                "trial_id": "mask",
                "internal_node_id": "0.0-19.0",
                "time_elapsed": 28252,
                "key_press": -1,
                "trial_index": 19
            },
            {
                "rt": -1,
                "trial_type": "single-stim",
                "stimulus": "<div class = imageBox><img class = image src = images/21_al_02_02.png </img></div>",
                "internal_node_id": "0.0-20.0",
                "time_elapsed": 29461,
                "key_press": -1,
                "trial_index": 20
            },
            {
                "rt": -1,
                "trial_type": "single-stim",
                "stimulus": "<div class = centerbox style = text-align:center><p style = font-size:40px>Same or different? </p></div>",
                "internal_node_id": "0.0-21.0",
                "time_elapsed": 30714,
                "key_press": 48,
                "trial_index": 21
            },
            {
                "rt": -1,
                "trial_type": "single-stim",
                "stimulus": "<div class = imageBox><img class = image src = images/21_target_01_01.png </img></div>",
                "internal_node_id": "0.0-22.0",
                "time_elapsed": 31922,
                "key_press": -1,
                "trial_index": 22
            },
            {
                "rt": -1,
                "trial_type": "single-stim",
                "stimulus": "<div class = imageBox><img class = image src = images/Pmask3.jpg </img></div>",
                "trial_id": "mask",
                "internal_node_id": "0.0-23.0",
                "time_elapsed": 33332,
                "key_press": -1,
                "trial_index": 23
            },
            {
                "rt": -1,
                "trial_type": "single-stim",
                "stimulus": "<div class = imageBox><img class = image src = images/21_al_02_02.png </img></div>",
                "internal_node_id": "0.0-24.0",
                "time_elapsed": 34540,
                "key_press": -1,
                "trial_index": 24
            },
            {
                "rt": -1,
                "trial_type": "single-stim",
                "stimulus": "<div class = centerbox style = text-align:center><p style = font-size:40px>Same or different? </p></div>",
                "internal_node_id": "0.0-25.0",
                "time_elapsed": 35844,
                "key_press": 48,
                "trial_index": 25
            },
            {
                "rt": -1,
                "trial_type": "single-stim",
                "stimulus": "<div class = imageBox><img class = image src = images/21_target_01_01.png </img></div>",
                "internal_node_id": "0.0-26.0",
                "time_elapsed": 37052,
                "key_press": -1,
                "trial_index": 26
            },
            {
                "rt": -1,
                "trial_type": "single-stim",
                "stimulus": "<div class = imageBox><img class = image src = images/Pmask3.jpg </img></div>",
                "trial_id": "mask",
                "internal_node_id": "0.0-27.0",
                "time_elapsed": 38457,
                "key_press": -1,
                "trial_index": 27
            },
            {
                "rt": -1,
                "trial_type": "single-stim",
                "stimulus": "<div class = imageBox><img class = image src = images/21_al_02_02.png </img></div>",
                "internal_node_id": "0.0-28.0",
                "time_elapsed": 39666,
                "key_press": -1,
                "trial_index": 28
            },
            {
                "rt": -1,
                "trial_type": "single-stim",
                "stimulus": "<div class = centerbox style = text-align:center><p style = font-size:40px>Same or different? </p></div>",
                "internal_node_id": "0.0-29.0",
                "time_elapsed": 40947,
                "key_press": 48,
                "trial_index": 29
            },
            {
                "rt": -1,
                "trial_type": "single-stim",
                "stimulus": "<div class = imageBox><img class = image src = images/21_target_01_01.png </img></div>",
                "internal_node_id": "0.0-30.0",
                "time_elapsed": 42154,
                "key_press": -1,
                "trial_index": 30
            },
            {
                "rt": -1,
                "trial_type": "single-stim",
                "stimulus": "<div class = imageBox><img class = image src = images/Pmask1.jpg </img></div>",
                "trial_id": "mask",
                "internal_node_id": "0.0-31.0",
                "time_elapsed": 43565,
                "key_press": -1,
                "trial_index": 31
            },
            {
                "rt": -1,
                "trial_type": "single-stim",
                "stimulus": "<div class = imageBox><img class = image src = images/21_al_02_02.png </img></div>",
                "internal_node_id": "0.0-32.0",
                "time_elapsed": 44774,
                "key_press": -1,
                "trial_index": 32
            },
            {
                "rt": -1,
                "trial_type": "single-stim",
                "stimulus": "<div class = centerbox style = text-align:center><p style = font-size:40px>Same or different? </p></div>",
                "internal_node_id": "0.0-33.0",
                "time_elapsed": 46123,
                "key_press": 48,
                "trial_index": 33
            },
            {
                "rt": -1,
                "trial_type": "text",
                "internal_node_id": "0.0-34.0",
                "time_elapsed": 51208,
                "key_press": 17,
                "trial_index": 34
            },
            {
                "rt": -1,
                "trial_type": "single-stim",
                "stimulus": "<div class = imageBox><img class = image src = images/11_target_01_01.png </img></div>",
                "trial_id": "target",
                "internal_node_id": "0.0-35.0",
                "time_elapsed": 54812,
                "key_press": -1,
                "trial_index": 35
            },
            {
                "rt": -1,
                "trial_type": "single-stim",
                "stimulus": "<div class = imageBox><img class = image src = images/Pmask4.jpg </img></div>",
                "trial_id": "mask",
                "internal_node_id": "0.0-36.0",
                "time_elapsed": 57815,
                "key_press": -1,
                "trial_index": 36
            },
            {
                "rt": -1,
                "trial_type": "single-stim",
                "stimulus": "<div class = imageBox><img class = image src = images/11_mis_02_02.png </img></div>",
                "trial_id": "probe",
                "internal_node_id": "0.0-37.0",
                "time_elapsed": 59816,
                "key_press": -1,
                "trial_index": 37
            },
            {
                "rt": 35455,
                "trial_type": "single-stim",
                "stimulus": "<div class = centerbox style = text-align:center><p style = font-size:40px>Same or different? </p></div>",
                "trial_id": "response",
                "internal_node_id": "0.0-38.0",
                "correct": false,
                "time_elapsed": 97271,
                "key_press": 49,
                "trial_index": 38,
                "congruency": [
                    "congruent"
                ],
                "response": [
                    "different"
                ],
                "alignment": [
                    "misaligned"
                ]
            },
            {
                "rt": -1,
                "trial_type": "single-stim",
                "stimulus": "<div class = imageBox><img class = image src = images/12_target_01_01.png </img></div>",
                "trial_id": "target",
                "internal_node_id": "0.0-39.0",
                "time_elapsed": 98481,
                "key_press": -1,
                "trial_index": 39
            },
            {
                "rt": -1,
                "trial_type": "single-stim",
                "stimulus": "<div class = imageBox><img class = image src = images/Pmask1.jpg </img></div>",
                "trial_id": "mask",
                "internal_node_id": "0.0-40.0",
                "time_elapsed": 99892,
                "key_press": -1,
                "trial_index": 40
            },
            {
                "rt": -1,
                "trial_type": "single-stim",
                "stimulus": "<div class = imageBox><img class = image src = images/12_mis_01_02.png </img></div>",
                "trial_id": "probe",
                "internal_node_id": "0.0-41.0",
                "time_elapsed": 101101,
                "key_press": -1,
                "trial_index": 41
            },
            {
                "rt": 386,
                "trial_type": "single-stim",
                "stimulus": "<div class = centerbox style = text-align:center><p style = font-size:40px>Same or different? </p></div>",
                "trial_id": "response",
                "internal_node_id": "0.0-42.0",
                "correct": true,
                "time_elapsed": 102494,
                "key_press": 48,
                "trial_index": 42,
                "congruency": [
                    "congruent"
                ],
                "response": [
                    "different"
                ],
                "alignment": [
                    "misaligned"
                ]
            },
            {
                "rt": -1,
                "trial_type": "single-stim",
                "stimulus": "<div class = imageBox><img class = image src = images/15_target_01_01.png </img></div>",
                "trial_id": "target",
                "internal_node_id": "0.0-43.0",
                "time_elapsed": 103699,
                "key_press": -1,
                "trial_index": 43
            },
            {
                "rt": -1,
                "trial_type": "single-stim",
                "stimulus": "<div class = imageBox><img class = image src = images/Pmask3.jpg </img></div>",
                "trial_id": "mask",
                "internal_node_id": "0.0-44.0",
                "time_elapsed": 105110,
                "key_press": -1,
                "trial_index": 44
            },
            {
                "rt": -1,
                "trial_type": "single-stim",
                "stimulus": "<div class = imageBox><img class = image src = images/15_mis_02_02.png </img></div>",
                "trial_id": "probe",
                "internal_node_id": "0.0-45.0",
                "time_elapsed": 106320,
                "key_press": -1,
                "trial_index": 45
            },
            {
                "rt": 345,
                "trial_type": "single-stim",
                "stimulus": "<div class = centerbox style = text-align:center><p style = font-size:40px>Same or different? </p></div>",
                "trial_id": "response",
                "internal_node_id": "0.0-46.0",
                "correct": true,
                "time_elapsed": 107672,
                "key_press": 48,
                "trial_index": 46,
                "congruency": [
                    "congruent"
                ],
                "response": [
                    "different"
                ],
                "alignment": [
                    "misaligned"
                ]
            },
            {
                "rt": -1,
                "trial_type": "single-stim",
                "stimulus": "<div class = imageBox><img class = image src = images/8_target_01_01.png </img></div>",
                "trial_id": "target",
                "internal_node_id": "0.0-47.0",
                "time_elapsed": 108876,
                "key_press": -1,
                "trial_index": 47
            },
            {
                "rt": -1,
                "trial_type": "single-stim",
                "stimulus": "<div class = imageBox><img class = image src = images/Pmask3.jpg </img></div>",
                "trial_id": "mask",
                "internal_node_id": "0.0-48.0",
                "time_elapsed": 110285,
                "key_press": -1,
                "trial_index": 48
            },
            {
                "rt": -1,
                "trial_type": "single-stim",
                "stimulus": "<div class = imageBox><img class = image src = images/8_al_02_02.png </img></div>",
                "trial_id": "probe",
                "internal_node_id": "0.0-49.0",
                "time_elapsed": 111492,
                "key_press": -1,
                "trial_index": 49
            },
            {
                "rt": 339,
                "trial_type": "single-stim",
                "stimulus": "<div class = centerbox style = text-align:center><p style = font-size:40px>Same or different? </p></div>",
                "trial_id": "response",
                "internal_node_id": "0.0-50.0",
                "correct": true,
                "time_elapsed": 112833,
                "key_press": 48,
                "trial_index": 50,
                "congruency": [
                    "congruent"
                ],
                "response": [
                    "different"
                ],
                "alignment": [
                    "misaligned"
                ]
            },
            {
                "rt": -1,
                "trial_type": "single-stim",
                "stimulus": "<div class = imageBox><img class = image src = images/7_target_01_01.png </img></div>",
                "trial_id": "target",
                "internal_node_id": "0.0-51.0",
                "time_elapsed": 114042,
                "key_press": -1,
                "trial_index": 51
            },
            {
                "rt": -1,
                "trial_type": "single-stim",
                "stimulus": "<div class = imageBox><img class = image src = images/Pmask4.jpg </img></div>",
                "trial_id": "mask",
                "internal_node_id": "0.0-52.0",
                "time_elapsed": 115450,
                "key_press": -1,
                "trial_index": 52
            },
            {
                "rt": -1,
                "trial_type": "single-stim",
                "stimulus": "<div class = imageBox><img class = image src = images/7_al_02_01.png </img></div>",
                "trial_id": "probe",
                "internal_node_id": "0.0-53.0",
                "time_elapsed": 116654,
                "key_press": -1,
                "trial_index": 53
            },
            {
                "rt": 268,
                "trial_type": "single-stim",
                "stimulus": "<div class = centerbox style = text-align:center><p style = font-size:40px>Same or different? </p></div>",
                "trial_id": "response",
                "internal_node_id": "0.0-54.0",
                "correct": true,
                "time_elapsed": 117926,
                "key_press": 48,
                "trial_index": 54,
                "congruency": [
                    "congruent"
                ],
                "response": [
                    "different"
                ],
                "alignment": [
                    "misaligned"
                ]
            },
            {
                "rt": -1,
                "trial_type": "single-stim",
                "stimulus": "<div class = imageBox><img class = image src = images/9_target_01_01.png </img></div>",
                "trial_id": "target",
                "internal_node_id": "0.0-55.0",
                "time_elapsed": 119132,
                "key_press": -1,
                "trial_index": 55
            },
            {
                "rt": -1,
                "trial_type": "single-stim",
                "stimulus": "<div class = imageBox><img class = image src = images/Pmask2.jpg </img></div>",
                "trial_id": "mask",
                "internal_node_id": "0.0-56.0",
                "time_elapsed": 120544,
                "key_press": -1,
                "trial_index": 56
            },
            {
                "rt": -1,
                "trial_type": "single-stim",
                "stimulus": "<div class = imageBox><img class = image src = images/9_mis_02_02.png </img></div>",
                "trial_id": "probe",
                "internal_node_id": "0.0-57.0",
                "time_elapsed": 121752,
                "key_press": -1,
                "trial_index": 57
            },
            {
                "rt": 639,
                "trial_type": "single-stim",
                "stimulus": "<div class = centerbox style = text-align:center><p style = font-size:40px>Same or different? </p></div>",
                "trial_id": "response",
                "internal_node_id": "0.0-58.0",
                "correct": false,
                "time_elapsed": 123393,
                "key_press": 49,
                "trial_index": 58,
                "congruency": [
                    "congruent"
                ],
                "response": [
                    "different"
                ],
                "alignment": [
                    "misaligned"
                ]
            },
            {
                "rt": -1,
                "trial_type": "single-stim",
                "stimulus": "<div class = imageBox><img class = image src = images/4_target_01_01.png </img></div>",
                "trial_id": "target",
                "internal_node_id": "0.0-59.0",
                "time_elapsed": 124602,
                "key_press": -1,
                "trial_index": 59
            },
            {
                "rt": -1,
                "trial_type": "single-stim",
                "stimulus": "<div class = imageBox><img class = image src = images/Pmask5.jpg </img></div>",
                "trial_id": "mask",
                "internal_node_id": "0.0-60.0",
                "time_elapsed": 126007,
                "key_press": -1,
                "trial_index": 60
            },
            {
                "rt": -1,
                "trial_type": "single-stim",
                "stimulus": "<div class = imageBox><img class = image src = images/4_mis_02_01.png </img></div>",
                "trial_id": "probe",
                "internal_node_id": "0.0-61.0",
                "time_elapsed": 127214,
                "key_press": -1,
                "trial_index": 61
            },
            {
                "rt": 412,
                "trial_type": "single-stim",
                "stimulus": "<div class = centerbox style = text-align:center><p style = font-size:40px>Same or different? </p></div>",
                "trial_id": "response",
                "internal_node_id": "0.0-62.0",
                "correct": true,
                "time_elapsed": 128629,
                "key_press": 48,
                "trial_index": 62,
                "congruency": [
                    "congruent"
                ],
                "response": [
                    "different"
                ],
                "alignment": [
                    "misaligned"
                ]
            },
            {
                "rt": -1,
                "trial_type": "single-stim",
                "stimulus": "<div class = imageBox><img class = image src = images/19_target_01_01.png </img></div>",
                "trial_id": "target",
                "internal_node_id": "0.0-63.0",
                "time_elapsed": 129835,
                "key_press": -1,
                "trial_index": 63
            },
            {
                "rt": -1,
                "trial_type": "single-stim",
                "stimulus": "<div class = imageBox><img class = image src = images/Pmask2.jpg </img></div>",
                "trial_id": "mask",
                "internal_node_id": "0.0-64.0",
                "time_elapsed": 131245,
                "key_press": -1,
                "trial_index": 64
            },
            {
                "rt": -1,
                "trial_type": "single-stim",
                "stimulus": "<div class = imageBox><img class = image src = images/19_al_02_01.png </img></div>",
                "trial_id": "probe",
                "internal_node_id": "0.0-65.0",
                "time_elapsed": 132453,
                "key_press": -1,
                "trial_index": 65
            },
            {
                "rt": 260,
                "trial_type": "single-stim",
                "stimulus": "<div class = centerbox style = text-align:center><p style = font-size:40px>Same or different? </p></div>",
                "trial_id": "response",
                "internal_node_id": "0.0-66.0",
                "correct": true,
                "time_elapsed": 133717,
                "key_press": 48,
                "trial_index": 66,
                "congruency": [
                    "congruent"
                ],
                "response": [
                    "different"
                ],
                "alignment": [
                    "misaligned"
                ]
            },
            {
                "rt": -1,
                "trial_type": "single-stim",
                "stimulus": "<div class = imageBox><img class = image src = images/10_target_01_01.png </img></div>",
                "trial_id": "target",
                "internal_node_id": "0.0-67.0",
                "time_elapsed": 134925,
                "key_press": -1,
                "trial_index": 67
            },
            {
                "rt": -1,
                "trial_type": "single-stim",
                "stimulus": "<div class = imageBox><img class = image src = images/Pmask4.jpg </img></div>",
                "trial_id": "mask",
                "internal_node_id": "0.0-68.0",
                "time_elapsed": 136333,
                "key_press": -1,
                "trial_index": 68
            },
            {
                "rt": -1,
                "trial_type": "single-stim",
                "stimulus": "<div class = imageBox><img class = image src = images/10_mis_01_02.png </img></div>",
                "trial_id": "probe",
                "internal_node_id": "0.0-69.0",
                "time_elapsed": 137542,
                "key_press": -1,
                "trial_index": 69
            },
            {
                "rt": 418,
                "trial_type": "single-stim",
                "stimulus": "<div class = centerbox style = text-align:center><p style = font-size:40px>Same or different? </p></div>",
                "trial_id": "response",
                "internal_node_id": "0.0-70.0",
                "correct": false,
                "time_elapsed": 138966,
                "key_press": 49,
                "trial_index": 70,
                "congruency": [
                    "congruent"
                ],
                "response": [
                    "different"
                ],
                "alignment": [
                    "misaligned"
                ]
            },
            {
                "rt": -1,
                "trial_type": "single-stim",
                "stimulus": "<div class = imageBox><img class = image src = images/8_target_01_01.png </img></div>",
                "trial_id": "target",
                "internal_node_id": "0.0-71.0",
                "time_elapsed": 140172,
                "key_press": -1,
                "trial_index": 71
            },
            {
                "rt": -1,
                "trial_type": "single-stim",
                "stimulus": "<div class = imageBox><img class = image src = images/Pmask3.jpg </img></div>",
                "trial_id": "mask",
                "internal_node_id": "0.0-72.0",
                "time_elapsed": 141583,
                "key_press": -1,
                "trial_index": 72
            },
            {
                "rt": -1,
                "trial_type": "single-stim",
                "stimulus": "<div class = imageBox><img class = image src = images/8_mis_02_01.png </img></div>",
                "trial_id": "probe",
                "internal_node_id": "0.0-73.0",
                "time_elapsed": 142789,
                "key_press": -1,
                "trial_index": 73
            },
            {
                "rt": 296,
                "trial_type": "single-stim",
                "stimulus": "<div class = centerbox style = text-align:center><p style = font-size:40px>Same or different? </p></div>",
                "trial_id": "response",
                "internal_node_id": "0.0-74.0",
                "correct": true,
                "time_elapsed": 144091,
                "key_press": 48,
                "trial_index": 74,
                "congruency": [
                    "congruent"
                ],
                "response": [
                    "different"
                ],
                "alignment": [
                    "misaligned"
                ]
            },
            {
                "rt": -1,
                "trial_type": "single-stim",
                "stimulus": "<div class = imageBox><img class = image src = images/6_target_01_01.png </img></div>",
                "trial_id": "target",
                "internal_node_id": "0.0-75.0",
                "time_elapsed": 145297,
                "key_press": -1,
                "trial_index": 75
            },
            {
                "rt": -1,
                "trial_type": "single-stim",
                "stimulus": "<div class = imageBox><img class = image src = images/Pmask1.jpg </img></div>",
                "trial_id": "mask",
                "internal_node_id": "0.0-76.0",
                "time_elapsed": 146707,
                "key_press": -1,
                "trial_index": 76
            },
            {
                "rt": -1,
                "trial_type": "single-stim",
                "stimulus": "<div class = imageBox><img class = image src = images/6_mis_01_01.png </img></div>",
                "trial_id": "probe",
                "internal_node_id": "0.0-77.0",
                "time_elapsed": 147918,
                "key_press": -1,
                "trial_index": 77
            },
            {
                "rt": 317,
                "trial_type": "single-stim",
                "stimulus": "<div class = centerbox style = text-align:center><p style = font-size:40px>Same or different? </p></div>",
                "trial_id": "response",
                "internal_node_id": "0.0-78.0",
                "correct": false,
                "time_elapsed": 149237,
                "key_press": 49,
                "trial_index": 78,
                "congruency": [
                    "congruent"
                ],
                "response": [
                    "different"
                ],
                "alignment": [
                    "misaligned"
                ]
            },
            {
                "rt": -1,
                "trial_type": "single-stim",
                "stimulus": "<div class = imageBox><img class = image src = images/12_target_01_01.png </img></div>",
                "trial_id": "target",
                "internal_node_id": "0.0-79.0",
                "time_elapsed": 150445,
                "key_press": -1,
                "trial_index": 79
            },
            {
                "rt": -1,
                "trial_type": "single-stim",
                "stimulus": "<div class = imageBox><img class = image src = images/Pmask1.jpg </img></div>",
                "trial_id": "mask",
                "internal_node_id": "0.0-80.0",
                "time_elapsed": 151850,
                "key_press": -1,
                "trial_index": 80
            },
            {
                "rt": -1,
                "trial_type": "single-stim",
                "stimulus": "<div class = imageBox><img class = image src = images/12_mis_01_01.png </img></div>",
                "trial_id": "probe",
                "internal_node_id": "0.0-81.0",
                "time_elapsed": 153063,
                "key_press": -1,
                "trial_index": 81
            },
            {
                "rt": 304,
                "trial_type": "single-stim",
                "stimulus": "<div class = centerbox style = text-align:center><p style = font-size:40px>Same or different? </p></div>",
                "trial_id": "response",
                "internal_node_id": "0.0-82.0",
                "correct": false,
                "time_elapsed": 154372,
                "key_press": 49,
                "trial_index": 82,
                "congruency": [
                    "congruent"
                ],
                "response": [
                    "different"
                ],
                "alignment": [
                    "misaligned"
                ]
            },
            {
                "rt": -1,
                "trial_type": "single-stim",
                "stimulus": "<div class = imageBox><img class = image src = images/6_target_01_01.png </img></div>",
                "trial_id": "target",
                "internal_node_id": "0.0-83.0",
                "time_elapsed": 155581,
                "key_press": -1,
                "trial_index": 83
            },
            {
                "rt": -1,
                "trial_type": "single-stim",
                "stimulus": "<div class = imageBox><img class = image src = images/Pmask1.jpg </img></div>",
                "trial_id": "mask",
                "internal_node_id": "0.0-84.0",
                "time_elapsed": 156992,
                "key_press": -1,
                "trial_index": 84
            },
            {
                "rt": -1,
                "trial_type": "single-stim",
                "stimulus": "<div class = imageBox><img class = image src = images/6_mis_02_01.png </img></div>",
                "trial_id": "probe",
                "internal_node_id": "0.0-85.0",
                "time_elapsed": 158199,
                "key_press": -1,
                "trial_index": 85
            },
            {
                "rt": 90,
                "trial_type": "single-stim",
                "stimulus": "<div class = centerbox style = text-align:center><p style = font-size:40px>Same or different? </p></div>",
                "trial_id": "response",
                "internal_node_id": "0.0-86.0",
                "correct": false,
                "time_elapsed": 159293,
                "key_press": 49,
                "trial_index": 86,
                "congruency": [
                    "congruent"
                ],
                "response": [
                    "different"
                ],
                "alignment": [
                    "misaligned"
                ]
            },
            {
                "rt": -1,
                "trial_type": "single-stim",
                "stimulus": "<div class = imageBox><img class = image src = images/13_target_01_01.png </img></div>",
                "trial_id": "target",
                "internal_node_id": "0.0-87.0",
                "time_elapsed": 160501,
                "key_press": -1,
                "trial_index": 87
            },
            {
                "rt": -1,
                "trial_type": "single-stim",
                "stimulus": "<div class = imageBox><img class = image src = images/Pmask2.jpg </img></div>",
                "trial_id": "mask",
                "internal_node_id": "0.0-88.0",
                "time_elapsed": 161908,
                "key_press": -1,
                "trial_index": 88
            },
            {
                "rt": -1,
                "trial_type": "single-stim",
                "stimulus": "<div class = imageBox><img class = image src = images/13_mis_01_01.png </img></div>",
                "trial_id": "probe",
                "internal_node_id": "0.0-89.0",
                "time_elapsed": 163117,
                "key_press": -1,
                "trial_index": 89
            },
            {
                "rt": 280,
                "trial_type": "single-stim",
                "stimulus": "<div class = centerbox style = text-align:center><p style = font-size:40px>Same or different? </p></div>",
                "trial_id": "response",
                "internal_node_id": "0.0-90.0",
                "correct": false,
                "time_elapsed": 164400,
                "key_press": 49,
                "trial_index": 90,
                "congruency": [
                    "congruent"
                ],
                "response": [
                    "different"
                ],
                "alignment": [
                    "misaligned"
                ]
            },
            {
                "rt": -1,
                "trial_type": "single-stim",
                "stimulus": "<div class = imageBox><img class = image src = images/5_target_01_01.png </img></div>",
                "trial_id": "target",
                "internal_node_id": "0.0-91.0",
                "time_elapsed": 165606,
                "key_press": -1,
                "trial_index": 91
            },
            {
                "rt": -1,
                "trial_type": "single-stim",
                "stimulus": "<div class = imageBox><img class = image src = images/Pmask4.jpg </img></div>",
                "trial_id": "mask",
                "internal_node_id": "0.0-92.0",
                "time_elapsed": 167010,
                "key_press": -1,
                "trial_index": 92
            },
            {
                "rt": -1,
                "trial_type": "single-stim",
                "stimulus": "<div class = imageBox><img class = image src = images/5_al_01_02.png </img></div>",
                "trial_id": "probe",
                "internal_node_id": "0.0-93.0",
                "time_elapsed": 168219,
                "key_press": -1,
                "trial_index": 93
            },
            {
                "rt": 473,
                "trial_type": "single-stim",
                "stimulus": "<div class = centerbox style = text-align:center><p style = font-size:40px>Same or different? </p></div>",
                "trial_id": "response",
                "internal_node_id": "0.0-94.0",
                "correct": false,
                "time_elapsed": 169694,
                "key_press": 49,
                "trial_index": 94,
                "congruency": [
                    "congruent"
                ],
                "response": [
                    "different"
                ],
                "alignment": [
                    "misaligned"
                ]
            },
            {
                "rt": -1,
                "trial_type": "single-stim",
                "stimulus": "<div class = imageBox><img class = image src = images/4_target_01_01.png </img></div>",
                "trial_id": "target",
                "internal_node_id": "0.0-95.0",
                "time_elapsed": 170898,
                "key_press": -1,
                "trial_index": 95
            },
            {
                "rt": -1,
                "trial_type": "single-stim",
                "stimulus": "<div class = imageBox><img class = image src = images/Pmask3.jpg </img></div>",
                "trial_id": "mask",
                "internal_node_id": "0.0-96.0",
                "time_elapsed": 172303,
                "key_press": -1,
                "trial_index": 96
            },
            {
                "rt": -1,
                "trial_type": "single-stim",
                "stimulus": "<div class = imageBox><img class = image src = images/4_al_01_01.png </img></div>",
                "trial_id": "probe",
                "internal_node_id": "0.0-97.0",
                "time_elapsed": 173512,
                "key_press": -1,
                "trial_index": 97
            },
            {
                "rt": 323,
                "trial_type": "single-stim",
                "stimulus": "<div class = centerbox style = text-align:center><p style = font-size:40px>Same or different? </p></div>",
                "trial_id": "response",
                "internal_node_id": "0.0-98.0",
                "correct": false,
                "time_elapsed": 174837,
                "key_press": 49,
                "trial_index": 98,
                "congruency": [
                    "congruent"
                ],
                "response": [
                    "different"
                ],
                "alignment": [
                    "misaligned"
                ]
            },
            {
                "rt": -1,
                "trial_type": "single-stim",
                "stimulus": "<div class = imageBox><img class = image src = images/15_target_01_01.png </img></div>",
                "trial_id": "target",
                "internal_node_id": "0.0-99.0",
                "time_elapsed": 176046,
                "key_press": -1,
                "trial_index": 99
            },
            {
                "rt": -1,
                "trial_type": "single-stim",
                "stimulus": "<div class = imageBox><img class = image src = images/Pmask3.jpg </img></div>",
                "trial_id": "mask",
                "internal_node_id": "0.0-100.0",
                "time_elapsed": 177457,
                "key_press": -1,
                "trial_index": 100
            },
            {
                "rt": -1,
                "trial_type": "single-stim",
                "stimulus": "<div class = imageBox><img class = image src = images/15_al_01_02.png </img></div>",
                "trial_id": "probe",
                "internal_node_id": "0.0-101.0",
                "time_elapsed": 178664,
                "key_press": -1,
                "trial_index": 101
            },
            {
                "rt": 330,
                "trial_type": "single-stim",
                "stimulus": "<div class = centerbox style = text-align:center><p style = font-size:40px>Same or different? </p></div>",
                "trial_id": "response",
                "internal_node_id": "0.0-102.0",
                "correct": false,
                "time_elapsed": 179999,
                "key_press": 49,
                "trial_index": 102,
                "congruency": [
                    "congruent"
                ],
                "response": [
                    "different"
                ],
                "alignment": [
                    "misaligned"
                ]
            },
            {
                "rt": -1,
                "trial_type": "single-stim",
                "stimulus": "<div class = imageBox><img class = image src = images/3_target_01_01.png </img></div>",
                "trial_id": "target",
                "internal_node_id": "0.0-103.0",
                "time_elapsed": 181206,
                "key_press": -1,
                "trial_index": 103
            },
            {
                "rt": -1,
                "trial_type": "single-stim",
                "stimulus": "<div class = imageBox><img class = image src = images/Pmask4.jpg </img></div>",
                "trial_id": "mask",
                "internal_node_id": "0.0-104.0",
                "time_elapsed": 182616,
                "key_press": -1,
                "trial_index": 104
            },
            {
                "rt": -1,
                "trial_type": "single-stim",
                "stimulus": "<div class = imageBox><img class = image src = images/3_al_01_02.png </img></div>",
                "trial_id": "probe",
                "internal_node_id": "0.0-105.0",
                "time_elapsed": 183822,
                "key_press": -1,
                "trial_index": 105
            },
            {
                "rt": 527,
                "trial_type": "single-stim",
                "stimulus": "<div class = centerbox style = text-align:center><p style = font-size:40px>Same or different? </p></div>",
                "trial_id": "response",
                "internal_node_id": "0.0-106.0",
                "correct": false,
                "time_elapsed": 185356,
                "key_press": 49,
                "trial_index": 106,
                "congruency": [
                    "congruent"
                ],
                "response": [
                    "different"
                ],
                "alignment": [
                    "misaligned"
                ]
            },
            {
                "rt": -1,
                "trial_type": "single-stim",
                "stimulus": "<div class = imageBox><img class = image src = images/11_target_01_01.png </img></div>",
                "trial_id": "target",
                "internal_node_id": "0.0-107.0",
                "time_elapsed": 186563,
                "key_press": -1,
                "trial_index": 107
            },
            {
                "rt": -1,
                "trial_type": "single-stim",
                "stimulus": "<div class = imageBox><img class = image src = images/Pmask2.jpg </img></div>",
                "trial_id": "mask",
                "internal_node_id": "0.0-108.0",
                "time_elapsed": 187974,
                "key_press": -1,
                "trial_index": 108
            },
            {
                "rt": -1,
                "trial_type": "single-stim",
                "stimulus": "<div class = imageBox><img class = image src = images/11_al_02_02.png </img></div>",
                "trial_id": "probe",
                "internal_node_id": "0.0-109.0",
                "time_elapsed": 189184,
                "key_press": -1,
                "trial_index": 109
            },
            {
                "rt": 889,
                "trial_type": "single-stim",
                "stimulus": "<div class = centerbox style = text-align:center><p style = font-size:40px>Same or different? </p></div>",
                "trial_id": "response",
                "internal_node_id": "0.0-110.0",
                "correct": true,
                "time_elapsed": 191080,
                "key_press": 48,
                "trial_index": 110,
                "congruency": [
                    "congruent"
                ],
                "response": [
                    "different"
                ],
                "alignment": [
                    "misaligned"
                ]
            },
            {
                "rt": -1,
                "trial_type": "single-stim",
                "stimulus": "<div class = imageBox><img class = image src = images/9_target_01_01.png </img></div>",
                "trial_id": "target",
                "internal_node_id": "0.0-111.0",
                "time_elapsed": 192286,
                "key_press": -1,
                "trial_index": 111
            },
            {
                "rt": -1,
                "trial_type": "single-stim",
                "stimulus": "<div class = imageBox><img class = image src = images/Pmask5.jpg </img></div>",
                "trial_id": "mask",
                "internal_node_id": "0.0-112.0",
                "time_elapsed": 193691,
                "key_press": -1,
                "trial_index": 112
            },
            {
                "rt": -1,
                "trial_type": "single-stim",
                "stimulus": "<div class = imageBox><img class = image src = images/9_al_02_01.png </img></div>",
                "trial_id": "probe",
                "internal_node_id": "0.0-113.0",
                "time_elapsed": 194901,
                "key_press": -1,
                "trial_index": 113
            },
            {
                "rt": 256,
                "trial_type": "single-stim",
                "stimulus": "<div class = centerbox style = text-align:center><p style = font-size:40px>Same or different? </p></div>",
                "trial_id": "response",
                "internal_node_id": "0.0-114.0",
                "correct": false,
                "time_elapsed": 196158,
                "key_press": 49,
                "trial_index": 114,
                "congruency": [
                    "congruent"
                ],
                "response": [
                    "different"
                ],
                "alignment": [
                    "misaligned"
                ]
            },
            {
                "rt": -1,
                "trial_type": "single-stim",
                "stimulus": "<div class = imageBox><img class = image src = images/14_target_01_01.png </img></div>",
                "trial_id": "target",
                "internal_node_id": "0.0-115.0",
                "time_elapsed": 197364,
                "key_press": -1,
                "trial_index": 115
            },
            {
                "rt": -1,
                "trial_type": "single-stim",
                "stimulus": "<div class = imageBox><img class = image src = images/Pmask3.jpg </img></div>",
                "trial_id": "mask",
                "internal_node_id": "0.0-116.0",
                "time_elapsed": 198770,
                "key_press": -1,
                "trial_index": 116
            },
            {
                "rt": -1,
                "trial_type": "single-stim",
                "stimulus": "<div class = imageBox><img class = image src = images/14_mis_02_02.png </img></div>",
                "trial_id": "probe",
                "internal_node_id": "0.0-117.0",
                "time_elapsed": 199979,
                "key_press": -1,
                "trial_index": 117
            },
            {
                "rt": 287,
                "trial_type": "single-stim",
                "stimulus": "<div class = centerbox style = text-align:center><p style = font-size:40px>Same or different? </p></div>",
                "trial_id": "response",
                "internal_node_id": "0.0-118.0",
                "correct": false,
                "time_elapsed": 201267,
                "key_press": 49,
                "trial_index": 118,
                "congruency": [
                    "congruent"
                ],
                "response": [
                    "different"
                ],
                "alignment": [
                    "misaligned"
                ]
            },
            {
                "rt": -1,
                "trial_type": "single-stim",
                "stimulus": "<div class = imageBox><img class = image src = images/18_target_01_01.png </img></div>",
                "trial_id": "target",
                "internal_node_id": "0.0-119.0",
                "time_elapsed": 202472,
                "key_press": -1,
                "trial_index": 119
            },
            {
                "rt": -1,
                "trial_type": "single-stim",
                "stimulus": "<div class = imageBox><img class = image src = images/Pmask4.jpg </img></div>",
                "trial_id": "mask",
                "internal_node_id": "0.0-120.0",
                "time_elapsed": 203878,
                "key_press": -1,
                "trial_index": 120
            },
            {
                "rt": -1,
                "trial_type": "single-stim",
                "stimulus": "<div class = imageBox><img class = image src = images/18_al_02_02.png </img></div>",
                "trial_id": "probe",
                "internal_node_id": "0.0-121.0",
                "time_elapsed": 205083,
                "key_press": -1,
                "trial_index": 121
            },
            {
                "rt": 269,
                "trial_type": "single-stim",
                "stimulus": "<div class = centerbox style = text-align:center><p style = font-size:40px>Same or different? </p></div>",
                "trial_id": "response",
                "internal_node_id": "0.0-122.0",
                "correct": false,
                "time_elapsed": 206358,
                "key_press": 49,
                "trial_index": 122,
                "congruency": [
                    "congruent"
                ],
                "response": [
                    "different"
                ],
                "alignment": [
                    "misaligned"
                ]
            },
            {
                "rt": -1,
                "trial_type": "single-stim",
                "stimulus": "<div class = imageBox><img class = image src = images/15_target_01_01.png </img></div>",
                "trial_id": "target",
                "internal_node_id": "0.0-123.0",
                "time_elapsed": 207562,
                "key_press": -1,
                "trial_index": 123
            },
            {
                "rt": -1,
                "trial_type": "single-stim",
                "stimulus": "<div class = imageBox><img class = image src = images/Pmask1.jpg </img></div>",
                "trial_id": "mask",
                "internal_node_id": "0.0-124.0",
                "time_elapsed": 208972,
                "key_press": -1,
                "trial_index": 124
            },
            {
                "rt": -1,
                "trial_type": "single-stim",
                "stimulus": "<div class = imageBox><img class = image src = images/15_mis_01_02.png </img></div>",
                "trial_id": "probe",
                "internal_node_id": "0.0-125.0",
                "time_elapsed": 210182,
                "key_press": -1,
                "trial_index": 125
            },
            {
                "rt": 170,
                "trial_type": "single-stim",
                "stimulus": "<div class = centerbox style = text-align:center><p style = font-size:40px>Same or different? </p></div>",
                "trial_id": "response",
                "internal_node_id": "0.0-126.0",
                "correct": true,
                "time_elapsed": 211354,
                "key_press": 48,
                "trial_index": 126,
                "congruency": [
                    "congruent"
                ],
                "response": [
                    "different"
                ],
                "alignment": [
                    "misaligned"
                ]
            },
            {
                "rt": -1,
                "trial_type": "single-stim",
                "stimulus": "<div class = imageBox><img class = image src = images/11_target_01_01.png </img></div>",
                "trial_id": "target",
                "internal_node_id": "0.0-127.0",
                "time_elapsed": 212559,
                "key_press": -1,
                "trial_index": 127
            },
            {
                "rt": -1,
                "trial_type": "single-stim",
                "stimulus": "<div class = imageBox><img class = image src = images/Pmask1.jpg </img></div>",
                "trial_id": "mask",
                "internal_node_id": "0.0-128.0",
                "time_elapsed": 213970,
                "key_press": -1,
                "trial_index": 128
            },
            {
                "rt": -1,
                "trial_type": "single-stim",
                "stimulus": "<div class = imageBox><img class = image src = images/11_mis_01_02.png </img></div>",
                "trial_id": "probe",
                "internal_node_id": "0.0-129.0",
                "time_elapsed": 215180,
                "key_press": -1,
                "trial_index": 129
            },
            {
                "rt": 267,
                "trial_type": "single-stim",
                "stimulus": "<div class = centerbox style = text-align:center><p style = font-size:40px>Same or different? </p></div>",
                "trial_id": "response",
                "internal_node_id": "0.0-130.0",
                "correct": false,
                "time_elapsed": 216449,
                "key_press": 49,
                "trial_index": 130,
                "congruency": [
                    "congruent"
                ],
                "response": [
                    "different"
                ],
                "alignment": [
                    "misaligned"
                ]
            },
            {
                "rt": -1,
                "trial_type": "single-stim",
                "stimulus": "<div class = imageBox><img class = image src = images/7_target_01_01.png </img></div>",
                "trial_id": "target",
                "internal_node_id": "0.0-131.0",
                "time_elapsed": 217655,
                "key_press": -1,
                "trial_index": 131
            },
            {
                "rt": -1,
                "trial_type": "single-stim",
                "stimulus": "<div class = imageBox><img class = image src = images/Pmask2.jpg </img></div>",
                "trial_id": "mask",
                "internal_node_id": "0.0-132.0",
                "time_elapsed": 219066,
                "key_press": -1,
                "trial_index": 132
            },
            {
                "rt": -1,
                "trial_type": "single-stim",
                "stimulus": "<div class = imageBox><img class = image src = images/7_al_02_02.png </img></div>",
                "trial_id": "probe",
                "internal_node_id": "0.0-133.0",
                "time_elapsed": 220273,
                "key_press": -1,
                "trial_index": 133
            },
            {
                "rt": 315,
                "trial_type": "single-stim",
                "stimulus": "<div class = centerbox style = text-align:center><p style = font-size:40px>Same or different? </p></div>",
                "trial_id": "response",
                "internal_node_id": "0.0-134.0",
                "correct": true,
                "time_elapsed": 221592,
                "key_press": 48,
                "trial_index": 134,
                "congruency": [
                    "congruent"
                ],
                "response": [
                    "different"
                ],
                "alignment": [
                    "misaligned"
                ]
            },
            {
                "rt": -1,
                "trial_type": "single-stim",
                "stimulus": "<div class = imageBox><img class = image src = images/6_target_01_01.png </img></div>",
                "trial_id": "target",
                "internal_node_id": "0.0-135.0",
                "time_elapsed": 222798,
                "key_press": -1,
                "trial_index": 135
            },
            {
                "rt": -1,
                "trial_type": "single-stim",
                "stimulus": "<div class = imageBox><img class = image src = images/Pmask3.jpg </img></div>",
                "trial_id": "mask",
                "internal_node_id": "0.0-136.0",
                "time_elapsed": 224207,
                "key_press": -1,
                "trial_index": 136
            },
            {
                "rt": -1,
                "trial_type": "single-stim",
                "stimulus": "<div class = imageBox><img class = image src = images/6_al_01_01.png </img></div>",
                "trial_id": "probe",
                "internal_node_id": "0.0-137.0",
                "time_elapsed": 225417,
                "key_press": -1,
                "trial_index": 137
            },
            {
                "rt": 109,
                "trial_type": "single-stim",
                "stimulus": "<div class = centerbox style = text-align:center><p style = font-size:40px>Same or different? </p></div>",
                "trial_id": "response",
                "internal_node_id": "0.0-138.0",
                "correct": false,
                "time_elapsed": 226528,
                "key_press": 49,
                "trial_index": 138,
                "congruency": [
                    "congruent"
                ],
                "response": [
                    "different"
                ],
                "alignment": [
                    "misaligned"
                ]
            },
            {
                "rt": -1,
                "trial_type": "single-stim",
                "stimulus": "<div class = imageBox><img class = image src = images/14_target_01_01.png </img></div>",
                "trial_id": "target",
                "internal_node_id": "0.0-139.0",
                "time_elapsed": 227739,
                "key_press": -1,
                "trial_index": 139
            },
            {
                "rt": -1,
                "trial_type": "single-stim",
                "stimulus": "<div class = imageBox><img class = image src = images/Pmask3.jpg </img></div>",
                "trial_id": "mask",
                "internal_node_id": "0.0-140.0",
                "time_elapsed": 229147,
                "key_press": -1,
                "trial_index": 140
            },
            {
                "rt": -1,
                "trial_type": "single-stim",
                "stimulus": "<div class = imageBox><img class = image src = images/14_mis_02_01.png </img></div>",
                "trial_id": "probe",
                "internal_node_id": "0.0-141.0",
                "time_elapsed": 230357,
                "key_press": -1,
                "trial_index": 141
            },
            {
                "rt": 324,
                "trial_type": "single-stim",
                "stimulus": "<div class = centerbox style = text-align:center><p style = font-size:40px>Same or different? </p></div>",
                "trial_id": "response",
                "internal_node_id": "0.0-142.0",
                "correct": false,
                "time_elapsed": 231682,
                "key_press": 49,
                "trial_index": 142,
                "congruency": [
                    "congruent"
                ],
                "response": [
                    "different"
                ],
                "alignment": [
                    "misaligned"
                ]
            },
            {
                "rt": -1,
                "trial_type": "single-stim",
                "stimulus": "<div class = imageBox><img class = image src = images/14_target_01_01.png </img></div>",
                "trial_id": "target",
                "internal_node_id": "0.0-143.0",
                "time_elapsed": 232891,
                "key_press": -1,
                "trial_index": 143
            },
            {
                "rt": -1,
                "trial_type": "single-stim",
                "stimulus": "<div class = imageBox><img class = image src = images/Pmask5.jpg </img></div>",
                "trial_id": "mask",
                "internal_node_id": "0.0-144.0",
                "time_elapsed": 234301,
                "key_press": -1,
                "trial_index": 144
            },
            {
                "rt": -1,
                "trial_type": "single-stim",
                "stimulus": "<div class = imageBox><img class = image src = images/14_mis_01_02.png </img></div>",
                "trial_id": "probe",
                "internal_node_id": "0.0-145.0",
                "time_elapsed": 235509,
                "key_press": -1,
                "trial_index": 145
            },
            {
                "rt": 319,
                "trial_type": "single-stim",
                "stimulus": "<div class = centerbox style = text-align:center><p style = font-size:40px>Same or different? </p></div>",
                "trial_id": "response",
                "internal_node_id": "0.0-146.0",
                "correct": false,
                "time_elapsed": 236833,
                "key_press": 49,
                "trial_index": 146,
                "congruency": [
                    "congruent"
                ],
                "response": [
                    "different"
                ],
                "alignment": [
                    "misaligned"
                ]
            },
            {
                "rt": -1,
                "trial_type": "single-stim",
                "stimulus": "<div class = imageBox><img class = image src = images/7_target_01_01.png </img></div>",
                "trial_id": "target",
                "internal_node_id": "0.0-147.0",
                "time_elapsed": 238041,
                "key_press": -1,
                "trial_index": 147
            },
            {
                "rt": -1,
                "trial_type": "single-stim",
                "stimulus": "<div class = imageBox><img class = image src = images/Pmask2.jpg </img></div>",
                "trial_id": "mask",
                "internal_node_id": "0.0-148.0",
                "time_elapsed": 239449,
                "key_press": -1,
                "trial_index": 148
            },
            {
                "rt": -1,
                "trial_type": "single-stim",
                "stimulus": "<div class = imageBox><img class = image src = images/7_mis_01_01.png </img></div>",
                "trial_id": "probe",
                "internal_node_id": "0.0-149.0",
                "time_elapsed": 240657,
                "key_press": -1,
                "trial_index": 149
            },
            {
                "rt": 323,
                "trial_type": "single-stim",
                "stimulus": "<div class = centerbox style = text-align:center><p style = font-size:40px>Same or different? </p></div>",
                "trial_id": "response",
                "internal_node_id": "0.0-150.0",
                "correct": false,
                "time_elapsed": 241986,
                "key_press": 49,
                "trial_index": 150,
                "congruency": [
                    "congruent"
                ],
                "response": [
                    "different"
                ],
                "alignment": [
                    "misaligned"
                ]
            },
            {
                "rt": -1,
                "trial_type": "single-stim",
                "stimulus": "<div class = imageBox><img class = image src = images/17_target_01_01.png </img></div>",
                "trial_id": "target",
                "internal_node_id": "0.0-151.0",
                "time_elapsed": 243195,
                "key_press": -1,
                "trial_index": 151
            },
            {
                "rt": -1,
                "trial_type": "single-stim",
                "stimulus": "<div class = imageBox><img class = image src = images/Pmask5.jpg </img></div>",
                "trial_id": "mask",
                "internal_node_id": "0.0-152.0",
                "time_elapsed": 244603,
                "key_press": -1,
                "trial_index": 152
            },
            {
                "rt": -1,
                "trial_type": "single-stim",
                "stimulus": "<div class = imageBox><img class = image src = images/17_al_01_01.png </img></div>",
                "trial_id": "probe",
                "internal_node_id": "0.0-153.0",
                "time_elapsed": 245813,
                "key_press": -1,
                "trial_index": 153
            },
            {
                "rt": 341,
                "trial_type": "single-stim",
                "stimulus": "<div class = centerbox style = text-align:center><p style = font-size:40px>Same or different? </p></div>",
                "trial_id": "response",
                "internal_node_id": "0.0-154.0",
                "correct": true,
                "time_elapsed": 247156,
                "key_press": 48,
                "trial_index": 154,
                "congruency": [
                    "congruent"
                ],
                "response": [
                    "different"
                ],
                "alignment": [
                    "misaligned"
                ]
            },
            {
                "rt": 1923,
                "trial_type": "text",
                "internal_node_id": "0.0-155.0",
                "time_elapsed": 250088,
                "key_press": 32,
                "trial_index": 155
            }
        ]
    },
    "AcceptTime": "2017-11-14T22:46:56Z",
    "HITId": "3M93N4X8HKN3HCDG1S9HQAXUNEWSJO",
    "Assignment": "",
    "AssignmentStatus": "Approved",
    "SubmitTime": "2017-11-14T22:51:14Z"
}